id,trial,distance.moved,mean.velocity,time.in.periphery,time.in.center,left.visits.object,left.time.object,left.latency.object,right.visits.object,right.time.object,right.latency.object,freezes,time.freezing,zone.changes,object.side.my.view,object.side.etho.view,time.with.trained.object,time.with.untrained.object,latency.trained.object,latency.untrained.object,prop.time.trained.object,visits.trained.object,visits.untrained.object,rewarding.object.colour,first.choice,distance.moved.in.periphery,distance.moved.in.center,ate,trial.type
w1,1,963.589,3.24779,251.246,47.6466,9,22.422,20.42,6,15.0147,59.6584,73,79.4778,105,L,R,15.0147,22.422,59.6584,20.42,0.401069004,6,9,blue,untrained,870.444,93.145,no,training
w3,1,317.069,4.20104,76.4749,4.00392,3,7.60745,31.631,2,4.60451,3.20314,10,2.20216,21,L,R,4.60451,7.60745,3.20314,31.631,0.377049221,2,3,blue,trained,303.446,13.623,no,training
e1,1,1142.19,3.82397,274.869,24.0235,4,14.6143,59.258,14,51.8508,3.80372,52,20.42,137,L,R,51.8508,14.6143,3.80372,59.258,0.780120695,14,4,blue,trained,1040.32,101.87,no,training
e2,1,1056.44,3.58009,256.251,42.0412,14,47.8468,0,7,19.2188,36.8361,64,29.8292,128,R,L,47.8468,19.2188,0,36.8361,0.713432818,14,7,blue,trained,883.961,172.479,no,training
e3,1,1070.38,3.89982,281.476,11.8116,8,22.0216,96.4945,9,24.8243,8.00784,43,11.6114,114,L,R,24.8243,22.0216,8.00784,96.4945,0.529914037,9,8,blue,trained,1032.31,38.07,no,training
a1,1,1273.84,4.26472,239.034,59.8586,12,33.4327,22.8223,9,17.0167,55.8547,65,17.8174,170,L,R,17.0167,33.4327,55.8547,22.8223,0.337302327,9,12,blue,untrained,1041.4,232.44,no,training
a2,1,1328.23,4.47683,269.063,29.629,11,31.0304,12.6123,9,19.2188,30.8302,28,7.00686,159,L,R,19.2188,31.0304,30.8302,12.6123,0.382469771,9,11,blue,untrained,1129.72,198.51,no,training
a3,1,1666.25,6.01814,285.279,12.8125,17,22.2218,1.40137,7,15.6153,11.211,11,3.60353,213,R,L,22.2218,15.6153,1.40137,11.211,0.587301881,17,7,blue,trained,1557.15,109.1,no,training
b1,1,606.587,2.03081,265.06,33.8331,2,11.8116,61.4602,3,17.6172,97.2953,105,119.517,58,R,L,11.8116,17.6172,61.4602,97.2953,0.401361931,2,3,blue,trained,539.528,67.059,no,training
b2,1,857.423,2.88412,276.27,22.422,7,26.4259,25.8253,4,13.2129,91.0892,73,69.0676,96,L,R,13.2129,26.4259,91.0892,25.8253,0.333332492,4,7,blue,untrained,811.875,45.548,no,training
b3,1,1237.77,4.20885,229.825,68.6672,14,41.841,27.627,10,32.2316,46.8459,49,22.8223,155,L,R,32.2316,41.841,46.8459,27.627,0.435135259,10,14,blue,untrained,1028.17,209.6,yes,training
c1,1,948.768,3.1764,270.064,28.8282,8,25.4249,9.8096,9,24.0235,45.4445,83,39.4386,113,L,R,24.0235,25.4249,45.4445,9.8096,0.485829673,9,8,green,untrained,853.325,95.443,no,training
c2,1,1109.29,3.80044,284.479,13.8135,7,63.4621,12.4122,7,18.6182,109.908,81,24.2237,117,R,L,63.4621,18.6182,12.4122,109.908,0.773170907,7,7,green,trained,1032.88,76.41,yes,training
c3,1,1805.75,6.5695,274.068,23.6231,13,24.2237,32.0314,17,24.0235,0,36,13.2129,242,R,L,24.2237,24.0235,32.0314,0,0.502074732,13,17,green,untrained,1672.13,133.62,no,training
x1,1,991.416,3.31919,232.027,66.8655,6,12.4122,93.2913,8,81.2796,0,61,65.0637,103,L,R,81.2796,12.4122,0,93.2913,0.867520957,8,6,green,trained,836.422,154.994,yes,training
x2,1,899.362,3.011,258.853,40.0392,6,14.4141,91.2894,8,57.4563,0,86,42.4416,99,L,R,57.4563,14.4141,0,91.2894,0.799443164,8,6,green,trained,749.674,149.688,no,training
x3,1,496.024,3.54463,132.33,8.80862,6,16.4161,20.2198,1,2.40235,80.8792,54,14.6143,30,R,L,16.4161,2.40235,20.2198,80.8792,0.872340708,6,1,green,trained,483.638,12.386,no,training
v1,1,527.021,1.76798,295.489,3.40333,4,9.60941,38.4376,4,23.0225,0,112,166.963,38,L,R,23.0225,9.60941,0,38.4376,0.705521068,4,4,green,trained,508.87,18.151,no,training
v2,1,711.204,2.39389,210.606,88.0862,6,15.4151,27.627,6,19.0186,0,113,103.501,70,L,R,19.0186,15.4151,0,27.627,0.552325193,6,6,green,trained,645.083,66.121,no,training
v3,1,415.842,4.25651,92.4906,11.0108,7,32.4318,0.400392,1,2.80274,180.777,21,25.8253,31,R,L,32.4318,2.80274,0.400392,180.777,0.920454758,7,1,green,trained,391.119,24.723,no,training
g1,1,698.221,2.33759,279.474,19.419,5,22.6221,9.8096,4,16.0157,35.0343,76,75.2737,64,R,L,22.6221,16.0157,9.8096,35.0343,0.58549141,5,4,green,trained,656.053,42.168,no,training
g2,1,1187.37,3.97524,271.266,27.627,10,25.8253,32.6319,6,16.2159,50.8498,69,24.2237,128,R,L,25.8253,16.2159,32.6319,50.8498,0.61428551,10,6,green,trained,1008.31,179.06,no,training
g3,1,991.236,3.45522,279.273,17.4171,7,19.0186,38.4376,2,25.2247,82.6809,52,28.0274,109,L,R,25.2247,19.0186,82.6809,38.4376,0.570136043,2,7,green,untrained,962.003,29.233,no,training
w1,2,945.388,3.16509,282.677,16.2159,8,22.0216,26.0255,5,17.0167,8.80862,14,20.42,102,R,L,22.0216,17.0167,26.0255,8.80862,0.564102433,8,5,blue,untrained,899.805,45.583,no,training
w2,2,1044.95,3.49843,257.652,41.2404,9,29.629,108.106,13,35.0343,5.80568,10,12.4122,126,R,L,29.629,35.0343,108.106,5.80568,0.458204267,9,13,blue,untrained,865.248,179.702,no,training
w3,2,1503.13,5.03235,268.463,30.4298,10,24.6241,12.6123,8,17.0167,33.4327,3,5.60549,180,L,R,17.0167,24.6241,33.4327,12.6123,0.408654493,8,10,blue,untrained,1359.2,143.93,no,training
e1,2,1021.01,3.41826,249.244,49.4484,5,22.0216,4.60451,20,81.4798,38.2374,10,11.6114,115,L,R,81.4798,22.0216,38.2374,4.60451,0.787233796,20,5,blue,untrained,844.898,176.112,no,training
e2,2,1004.75,3.36383,248.643,50.2492,6,20.8204,32.6319,6,19.2188,14.6143,18,19.8194,121,L,R,19.2188,20.8204,14.6143,32.6319,0.4799996,6,6,blue,trained,836.251,168.499,no,training
e3,2,1126.64,3.77191,284.879,14.0137,9,28.2276,37.4367,12,44.8439,9.40921,4,1.40137,131,L,R,44.8439,28.2276,9.40921,37.4367,0.613698911,12,9,blue,trained,1042.1,84.54,no,training
a1,2,993.125,3.32491,247.843,51.05,9,33.0323,46.6457,5,19.2188,176.172,10,17.6172,121,R,L,33.0323,19.2188,46.6457,176.172,0.63218382,9,5,blue,trained,849.313,143.812,no,training
a2,2,992.685,3.32344,221.417,77.4759,9,33.4327,4.20412,9,27.8272,31.8312,8,5.0049,122,R,L,33.4327,27.8272,4.20412,31.8312,0.545751789,9,9,blue,trained,750.284,242.401,no,training
a3,2,1427.36,4.77869,287.882,9.8096,15,30.0294,22.6221,15,29.629,14.0137,3,3.60353,162,R,L,30.0294,29.629,22.6221,14.0137,0.503355772,15,15,blue,untrained,1367.17,60.19,no,training
b1,2,424.499,1.42119,178.174,120.718,1,3.00294,177.974,2,7.20706,13.8135,20,109.107,36,R,L,3.00294,7.20706,177.974,13.8135,0.294117532,1,2,blue,untrained,325.849,98.65,no,training
b2,2,886.054,2.96644,221.617,77.2757,6,22.6221,63.6623,11,48.4474,36.2355,19,36.8361,108,R,L,22.6221,48.4474,63.6623,36.2355,0.318309542,6,11,blue,untrained,721.118,164.936,no,training
b3,2,956.801,3.2033,173.37,125.122,13,52.2512,78.0764,11,47.6466,21.2208,10,19.2188,120,R,L,52.2512,47.6466,78.0764,21.2208,0.523046554,13,11,blue,untrained,593.446,363.355,no,training
c1,2,1106.87,3.70573,270.865,28.0274,10,28.0274,32.6319,10,44.0431,13.0127,10,5.60549,141,L,R,44.0431,28.0274,13.0127,32.6319,0.611111342,10,10,green,trained,968.236,138.634,no,training
c2,2,911.521,3.05991,278.272,20.42,3,7.20706,61.26,14,82.4808,6.80666,6,2.80274,79,L,R,82.4808,7.20706,6.80666,61.26,0.919642859,14,3,green,trained,828.472,83.049,no,training
c3,2,1953.03,6.5386,281.075,17.6172,14,26.2257,28.8282,16,31.2306,0,1,0.400392,249,L,R,31.2306,26.2257,0,28.8282,0.543553971,16,14,green,trained,1855.73,97.3,no,training
x1,2,1205.39,4.03556,272.867,26.0255,9,23.8233,14.0137,11,34.0333,28.628,9,18.2178,145,R,L,23.8233,34.0333,14.0137,28.628,0.411764604,9,11,green,trained,1050.4,154.99,no,training
x2,2,735.236,2.46152,248.643,50.2492,3,10.4102,32.2316,8,33.8331,18.2178,19,46.0451,86,R,L,10.4102,33.8331,32.2316,18.2178,0.235294384,3,8,green,untrained,576.444,158.792,no,training
x3,2,548.733,2.37932,228.223,3.00294,3,8.80862,187.784,4,14.2139,104.903,14,22.422,43,L,R,14.2139,8.80862,104.903,187.784,0.617391146,4,3,green,trained,531.674,17.059,no,training
v1,2,436.205,1.46038,281.476,17.4171,4,112.11,1.40137,2,11.0108,142.54,32,76.8753,27,R,L,112.11,11.0108,1.40137,142.54,0.910569132,4,2,green,trained,425.298,10.907,no,training
v2,2,861.348,2.88373,249.044,49.048,12,44.0431,2.80274,7,30.4298,58.0568,9,11.211,95,R,L,44.0431,30.4298,2.80274,58.0568,0.591397676,12,7,green,trained,696.456,164.892,no,training
v3,2,943.355,3.15828,273.268,25.2247,9,23.6231,15.4151,3,7.80764,57.4563,8,34.8341,97,L,R,7.80764,23.6231,57.4563,15.4151,0.248407769,3,9,green,untrained,878.758,64.597,no,training
g1,2,598.172,2.00264,277.071,21.8214,2,6.60647,50.2492,3,23.2227,75.0735,23,68.6672,49,L,R,23.2227,6.60647,75.0735,50.2492,0.77852317,3,2,green,untrained,566.728,31.444,no,training
g2,2,996.669,3.33678,279.273,19.2188,7,17.8174,9.00882,11,39.4386,24.4239,13,21.2208,116,L,R,39.4386,17.8174,24.4239,9.00882,0.688811653,11,7,green,untrained,897.795,98.874,no,training
g3,2,850.047,2.8459,280.475,16.2159,5,12.6123,48.4474,3,6.00588,27.4269,13,19.2188,71,R,L,12.6123,6.00588,48.4474,27.4269,0.677418523,5,3,green,untrained,825.763,24.284,no,training
w1,3,538.017,1.80124,263.858,35.0343,8,97.4955,0,5,20.0196,140.337,17,102.3,42,R,L,97.4955,20.0196,0,140.337,0.829642318,8,5,blue,trained,475.117,62.9,no,training
w2,3,808.629,2.70723,226.622,71.47,9,34.4337,25.0245,8,79.678,53.0519,14,49.8488,81,R,L,34.4337,79.678,25.0245,53.0519,0.301754334,9,8,blue,trained,650.634,157.995,no,training
w3,3,1105.87,3.70239,256.851,41.841,2,3.00294,73.2717,13,41.4406,0,9,7.00686,116,R,L,3.00294,41.4406,73.2717,0,0.067567525,2,13,blue,untrained,963.881,141.989,no,training
e1,3,794.566,2.66015,218.814,80.0784,8,44.4435,109.908,8,28.2276,0,12,12.212,87,L,R,28.2276,44.4435,0,109.908,0.388429513,8,8,blue,trained,572.46,222.106,no,training
e2,3,730.035,2.4441,234.83,64.0627,3,11.6114,85.2835,7,49.6486,33.2325,19,26.0255,73,L,R,49.6486,11.6114,33.2325,85.2835,0.810457068,7,3,blue,trained,557.248,172.787,no,training
e3,3,844.363,2.82687,269.864,29.0284,5,13.0127,63.8625,6,20.42,13.4131,11,42.6417,89,L,R,20.42,13.0127,13.4131,63.8625,0.610779267,6,5,blue,trained,757.438,86.925,no,training
a1,3,960.843,3.21683,258.253,40.6398,11,28.8282,36.2355,2,6.00588,97.4955,8,6.20608,103,L,R,6.00588,28.8282,97.4955,36.2355,0.172413912,2,11,blue,untrained,856.2,104.643,no,training
a2,3,702.92,2.35332,236.632,62.261,4,15.0147,114.913,4,26.4259,49.8488,17,25.0245,74,L,R,26.4259,15.0147,49.8488,114.913,0.637681404,4,4,blue,trained,559.248,143.672,no,training
a3,3,1324.71,4.43502,284.278,14.6143,7,18.2178,0,13,34.0333,22.422,4,4.00392,153,L,R,34.0333,18.2178,22.422,0,0.651341311,13,7,blue,untrained,1257.38,67.33,no,training
b1,3,293.202,0.981619,103.101,195.792,0,0,-,4,29.629,17.2169,21,138.335,18,L,R,29.629,0,17.2169,300,1,4,0,blue,trained,115.469,177.733,no,training
b2,3,681.528,2.2817,213.209,85.6839,5,38.0372,47.8468,4,14.6143,79.8782,23,76.4749,71,L,R,14.6143,38.0372,79.8782,47.8468,0.277566641,4,5,blue,untrained,595.674,85.854,no,training
b3,3,759.796,2.54374,127.325,171.568,14,83.2815,6.80666,6,23.2227,131.128,6,4.60451,97,L,R,23.2227,83.2815,131.128,6.80666,0.218044922,6,14,blue,untrained,300.227,459.569,no,training
c1,3,637.752,2.13515,232.828,65.8645,6,60.8596,0.400392,7,39.0382,53.0519,38,65.8645,73,L,R,39.0382,60.8596,53.0519,0.400392,0.390781379,7,6,green,untrained,477.128,160.624,no,training
c2,3,885.624,2.965,271.266,27.0265,14,100.098,24.6241,7,24.8243,0,26,29.0284,87,R,L,100.098,24.8243,24.6241,0,0.801282077,14,7,green,untrained,782.643,102.981,no,training
c3,3,2049.15,6.86041,273.868,24.6241,10,16.4161,24.6241,18,30.2296,1.20118,1,0.600588,270,R,L,16.4161,30.2296,24.6241,1.20118,0.351931689,10,18,green,untrained,1888.79,160.36,no,training
x1,3,470.518,1.57526,188.184,110.708,0,0,-,10,64.4631,0.400392,39,78.2766,47,L,R,64.4631,0,0.400392,300,1,10,0,green,trained,314.656,155.862,no,training
x2,3,1011.14,3.38523,229.825,69.0676,5,14.0137,15.6153,10,128.926,4.20412,23,33.0323,118,L,R,128.926,14.0137,4.20412,15.6153,0.901960757,10,5,green,trained,693.01,318.13,yes,training
x3,3,782.699,2.62042,271.065,27.0265,4,20.0196,20.2198,3,14.4141,54.4533,20,34.6339,74,L,R,14.4141,20.0196,54.4533,20.2198,0.418604449,3,4,green,untrained,719.108,63.591,no,training
v1,3,794.281,2.65919,261.656,37.2365,6,19.419,53.6525,7,68.0666,1.00098,31,26.2257,83,L,R,68.0666,19.419,1.00098,53.6525,0.778032042,7,6,green,trained,637.34,156.941,no,training
v2,3,764.481,2.55943,275.47,23.2227,6,34.8341,6.00588,5,16.0157,53.6525,16,19.2188,74,L,R,16.0157,34.8341,53.6525,6.00588,0.314960924,5,6,green,untrained,684.819,79.662,no,training
v3,3,943.583,3.15905,254.449,43.8429,13,108.506,0,3,10.21,84.0823,7,16.6163,108,R,L,108.506,10.21,0,84.0823,0.913996428,13,3,green,trained,804.81,138.773,no,training
g1,3,433.872,1.45257,246.241,52.6515,5,25.0245,28.8282,3,22.8223,86.0843,21,134.131,36,R,L,25.0245,22.8223,28.8282,86.0843,0.523013033,5,3,green,trained,352.815,81.057,no,training
g2,3,388.128,1.29942,211.807,87.0853,4,124.322,3.20314,2,5.40529,266.261,38,143.14,20,R,L,124.322,5.40529,3.20314,266.261,0.958333439,4,2,green,trained,266.642,121.486,no,training
g3,3,158.456,0.530499,272.267,26.2257,1,20.2198,191.187,2,25.0245,91.89,44,152.549,0,R,L,20.2198,25.0245,191.187,91.89,0.446902704,1,2,green,untrained,148.947,9.509,no,training
w1,4,764.853,2.54871,295.089,5.2051,5,12.212,16.2159,4,13.4131,38.0372,23,91.2894,71,L,R,13.4131,12.212,38.0372,16.2159,0.523436006,4,5,blue,untrained,706.487,58.366,no,training
w2,4,1020.23,3.39971,224.019,76.0745,10,31.8312,13.2129,8,29.8292,42.8419,12,32.0314,117,L,R,29.8292,31.8312,42.8419,13.2129,0.483765918,8,10,blue,untrained,801.943,218.287,no,training
w3,4,1479.03,4.92855,245.64,54.4533,10,24.0235,23.6231,9,25.6251,6.00588,3,2.20216,185,R,L,24.0235,25.6251,23.6231,6.00588,0.483870643,10,9,blue,untrained,1245.11,233.92,no,training
e1,4,912.528,3.04081,279.474,20.8204,5,20.2198,30.8302,9,43.4425,8.80862,9,14.6143,97,R,L,20.2198,43.4425,30.8302,8.80862,0.317610265,5,9,blue,untrained,861.156,51.372,no,training
e2,4,771.053,2.56937,226.021,74.0725,4,16.2159,46.6457,9,53.4523,7.40725,18,59.6584,86,R,L,16.2159,53.4523,46.6457,7.40725,0.232758992,4,9,blue,untrained,580.773,190.28,no,training
e3,4,1070.2,3.56622,262.257,37.837,8,41.2404,16.2159,10,67.6662,2.60255,17,36.6359,128,L,R,67.6662,41.2404,2.60255,16.2159,0.621323226,10,8,blue,trained,864.178,206.022,no,training
a1,4,1092.9,3.64185,264.259,36.0353,9,27.8272,54.6535,6,24.0235,109.507,10,12.8125,134,R,L,27.8272,24.0235,54.6535,109.507,0.536679351,9,6,blue,trained,965.803,127.097,no,training
a2,4,735.058,2.44943,198.594,101.499,6,13.0127,40.4396,7,33.2325,54.4533,25,36.8361,85,R,L,13.0127,33.2325,40.4396,54.4533,0.281384879,6,7,blue,trained,496.969,238.089,no,training
a3,4,1343.59,4.47724,283.478,15.8155,9,15.2149,4.8047,16,42.2414,17.8174,2,2.60255,154,R,L,15.2149,42.2414,4.8047,17.8174,0.264808211,9,16,blue,trained,1281.2,62.39,no,training
b2,4,933.667,3.12794,221.617,76.8753,9,21.8214,68.8674,10,29.8292,37.6368,15,44.6437,108,L,R,29.8292,21.8214,37.6368,68.8674,0.577518945,10,9,blue,trained,761.788,171.879,no,training
b3,4,1068.94,3.56202,248.043,52.051,15,46.0451,40.0392,6,20.0196,18.418,9,19.6192,126,L,R,20.0196,46.0451,18.418,40.0392,0.303030211,6,15,blue,trained,874.945,193.995,no,training
c1,4,514.755,1.71531,229.425,70.8694,4,202.198,38.6378,6,14.2139,0.800784,66,98.096,37,R,L,202.198,14.2139,38.6378,0.800784,0.934320155,4,6,green,untrained,289.905,224.85,yes,training
c2,4,763.014,2.54259,271.266,28.8282,8,72.2708,29.2286,8,33.2325,0,18,21.421,57,R,L,72.2708,33.2325,29.2286,0,0.685009853,8,8,green,untrained,635.186,127.828,yes,training
c3,4,1470.5,4.90015,278.873,20.8204,12,103.501,35.0343,12,24.2237,0,10,4.20412,169,R,L,103.501,24.2237,35.0343,0,0.810344436,12,12,green,untrained,1357.18,113.32,yes,training
x1,4,735.911,2.47873,246.441,51.2502,11,152.549,44.8439,4,27.0265,0,35,41.4406,68,R,L,152.549,27.0265,44.8439,0,0.849497844,11,4,green,untrained,572.964,162.947,yes,training
x2,4,760.649,2.5347,201.597,98.4964,4,16.8165,7.80764,7,27.4269,37.2365,19,28.0274,85,R,L,16.8165,27.4269,7.80764,37.2365,0.38009059,4,7,green,trained,479.965,280.684,no,training
x3,4,703.852,2.34544,298.692,1.60157,6,14.2139,121.719,3,10.6104,148.946,12,64.2629,57,R,L,14.2139,10.6104,121.719,148.946,0.572580093,6,3,green,trained,697.332,6.52,no,training
v1,4,266.217,0.887114,283.678,16.6163,3,14.4141,80.679,1,61.0598,0,13,217.213,3,L,R,61.0598,14.4141,0,80.679,0.809018747,1,3,green,trained,256.448,9.769,no,training
v2,4,959.086,3.19595,276.07,24.2237,7,33.2325,58.8576,3,18.2178,36.0353,9,3.00294,99,L,R,18.2178,33.2325,36.0353,58.8576,0.354085399,3,7,green,trained,852.388,106.698,no,training
v3,4,933.746,3.11151,265.26,34.8341,7,25.4249,3.00294,7,56.0549,52.8517,9,10.21,103,L,R,56.0549,25.4249,52.8517,3.00294,0.687960697,7,7,green,untrained,784.674,149.072,no,training
g1,4,377.976,1.25953,277.472,22.8223,3,17.2169,42.2414,5,31.2306,0,28,133.331,24,L,R,31.2306,17.2169,0,42.2414,0.64462769,5,3,green,trained,324.966,53.01,no,training
g2,4,866.419,2.88716,258.853,41.4406,5,18.8184,0,10,48.8478,44.0431,24,71.2698,95,L,R,48.8478,18.8184,44.0431,0,0.721893649,10,5,green,untrained,686.168,180.251,no,training
g3,4,363.41,1.21099,172.769,126.324,2,9.20902,75.2737,5,64.2629,42.4416,20,26.4259,35,L,R,64.2629,9.20902,42.4416,75.2737,0.874659326,5,2,green,trained,216.093,147.317,no,training
w1,5,875.726,2.92012,291.886,8.20804,17,41.6408,7.20706,0,0,-,13,30.8302,72,L,R,0,41.6408,300,7.20706,0,0,17,blue,untrained,851.578,24.148,no,training
w2,5,697.029,2.32426,248.043,51.05,14,145.342,0,4,20.2198,37.2365,10,23.4229,74,L,R,20.2198,145.342,37.2365,0,0.122128414,4,14,blue,untrained,502.886,194.143,no,training
w3,5,1091.55,3.63979,231.827,67.8664,11,31.2306,27.627,6,18.6182,83.8821,9,40.84,134,L,R,18.6182,31.2306,83.8821,27.627,0.373493444,6,11,blue,untrained,896.7,194.85,yes,training
e1,5,683.213,2.27818,284.879,15.2149,1,10.8106,207.003,18,73.0715,19.2188,16,43.0421,55,L,R,73.0715,10.8106,19.2188,207.003,0.871121491,18,1,blue,trained,644.123,39.09,yes,training
e2,5,525.151,1.75113,218.013,82.0804,5,18.0176,64.6633,5,146.543,20.8204,39,104.302,44,L,R,146.543,18.0176,20.8204,64.6633,0.890510851,5,5,blue,trained,326.744,198.407,yes,training
e3,5,765.03,2.55101,173.97,125.323,6,22.0216,167.764,12,114.112,0,15,28.0274,88,L,R,114.112,22.0216,0,167.764,0.838235381,12,6,blue,trained,437.06,327.97,yes,training
a1,5,519.777,1.7332,134.532,165.562,1,3.20314,291.285,3,15.8155,179.776,13,6.80666,37,L,R,15.8155,3.20314,179.776,291.285,0.831578914,3,1,blue,trained,204.308,315.469,yes,training
a2,5,585.043,1.95084,145.943,154.151,5,15.6153,68.0666,4,4.40431,169.766,13,19.8194,52,L,R,4.40431,15.6153,169.766,68.0666,0.21999979,4,5,blue,untrained,256.94,328.103,yes,training
a3,5,999.877,3.33411,217.413,81.4798,10,44.6437,0,13,32.0314,24.0235,0,0,119,L,R,32.0314,44.6437,24.0235,0,0.417754917,13,10,blue,untrained,676.464,323.413,no,training
b2,5,462.534,1.54233,149.947,150.147,7,90.889,1.40137,2,21.2208,71.2698,24,61.6604,39,L,R,21.2208,90.889,71.2698,1.40137,0.189285861,2,7,blue,untrained,258.103,204.431,no,training
b3,5,759.376,2.53215,123.521,175.772,7,37.0363,49.6486,5,34.8341,0,5,8.80862,93,L,R,34.8341,37.0363,0,49.6486,0.484679367,5,7,blue,trained,309.647,449.729,yes,training
c1,5,289.749,0.966171,285.479,14.6143,2,133.13,166.563,2,10.4102,0,41,154.551,0,R,L,133.13,10.4102,166.563,0,0.927475369,2,2,green,untrained,241.177,48.572,yes,training
c2,5,250.157,0.834152,294.889,4.8047,3,254.049,45.6447,1,3.60353,7.80764,75,61.4602,0,R,L,254.049,3.60353,45.6447,7.80764,0.986013993,3,1,green,untrained,241.684,8.473,yes,training
c3,5,730.218,2.43493,276.471,23.4229,8,215.211,19.6192,4,16.4161,0,16,12.0118,46,R,L,215.211,16.4161,19.6192,0,0.929127032,8,4,green,untrained,638.042,92.176,yes,training
x1,5,281.2,0.937666,266.06,33.8331,3,255.65,35.2345,1,16.6163,11.0108,76,108.506,0,R,L,255.65,16.6163,35.2345,11.0108,0.938970412,3,1,green,untrained,217.289,63.911,yes,training
x2,5,639.218,2.13148,179.976,120.118,4,57.6564,11.8116,3,11.8116,105.103,19,20.2198,70,R,L,57.6564,11.8116,11.8116,105.103,0.829970634,4,3,green,trained,406.037,233.181,no,training
x3,5,672.593,2.24277,282.677,17.2169,4,9.00882,58.4572,4,16.2159,209.405,24,67.0657,64,R,L,9.00882,16.2159,58.4572,209.405,0.357142517,4,4,green,trained,618.399,54.194,no,training
v1,5,497.343,1.6584,206.602,93.4915,5,153.15,17.6172,3,22.8223,0,51,74.8733,42,R,L,153.15,22.8223,17.6172,0,0.870307429,5,3,green,untrained,380.382,116.961,yes,training
v2,5,217.748,0.726083,275.87,24.2237,2,279.073,12.8125,0,0,-,78,124.722,0,R,L,279.073,0,12.8125,300,1,2,0,green,trained,176.661,41.087,yes,training
v3,5,899.174,2.99831,277.872,21.421,6,20.8204,0,2,6.20608,174.571,13,33.8331,94,R,L,20.8204,6.20608,0,174.571,0.770370392,6,2,green,trained,787.276,111.898,no,training
g1,5,488.466,1.6288,274.469,25.6251,5,22.2218,1.60157,1,7.60745,160.557,18,104.502,40,R,L,22.2218,7.60745,1.60157,160.557,0.744966769,5,1,green,trained,407.283,81.183,no,training
g2,5,463.856,1.54674,272.667,27.4269,6,227.222,0,2,3.40333,208.404,9,19.6192,40,R,L,227.222,3.40333,0,208.404,0.985243035,6,2,green,trained,330.408,133.448,no,training
g3,5,553.218,1.84472,237.032,62.6613,2,12.6123,269.664,7,43.8429,5.40529,11,7.00686,47,R,L,12.6123,43.8429,269.664,5.40529,0.22340369,2,7,green,untrained,436.451,116.767,no,training
w1,6,211.971,0.716871,205.001,92.4906,3,206.202,89.2874,0,0,-,53,150.948,0,R,L,206.202,0,89.2874,300,1,3,0,blue,trained,166.105,45.866,no,training
w2,6,0,0,0,0.800784,0,0,-,1,0.800784,0,-,-,0,R,L,0,0.800784,300,0,0,0,1,blue,untrained,0,0,no,training
w3,6,922.437,3.13874,167.764,131.729,14,79.2776,26.2257,5,25.0245,114.913,6,18.2178,124,R,L,79.2776,25.0245,26.2257,114.913,0.760076739,14,5,blue,trained,544.967,377.47,yes,training
e1,6,842.384,2.80894,175.572,124.522,9,24.6241,19.8194,6,18.8184,68.0666,13,9.8096,98,R,L,24.6241,18.8184,19.8194,68.0666,0.56682051,9,6,blue,trained,508.908,333.476,yes,training
e2,6,507.207,1.69695,210.206,89.4876,5,132.33,42.8419,2,20.6202,60.8596,51,78.0764,48,R,L,132.33,20.6202,42.8419,60.8596,0.86518357,5,2,blue,trained,289.618,217.589,yes,training
a1,6,684.354,2.28199,127.124,172.969,7,26.4259,70.6692,10,67.2659,4.20412,11,7.00686,90,R,L,26.4259,67.2659,70.6692,4.20412,0.282051364,7,10,blue,untrained,286.021,398.333,yes,training
a2,6,712.854,2.37702,195.992,103.902,6,45.8449,14.4141,5,21.0206,67.2659,11,24.8243,81,R,L,45.8449,21.0206,14.4141,67.2659,0.685628613,6,5,blue,trained,426.365,286.489,yes,training
a3,6,1208.68,4.03035,250.846,49.2482,7,31.0304,1.40137,8,20.42,86.4847,1,0.400392,147,R,L,31.0304,20.42,1.40137,86.4847,0.603112901,7,8,blue,trained,1064.48,144.2,no,training
b2,6,503.426,1.67868,154.952,145.142,7,38.838,54.6535,2,12.0118,169.566,9,9.00882,53,R,L,38.838,12.0118,54.6535,169.566,0.763778815,7,2,blue,trained,247.492,255.934,yes,training
b3,6,637.433,2.12553,127.124,172.769,2,4.8047,132.73,13,112.71,23.8233,9,20.0196,74,R,L,4.8047,112.71,132.73,23.8233,0.040885949,2,13,blue,untrained,277.82,359.613,yes,training
e3,6,474.451,1.58207,246.041,53.4523,4,179.376,0,6,41.6408,150.948,35,26.4259,35,R,L,179.376,41.6408,0,150.948,0.811594413,4,6,blue,trained,344.115,130.336,yes,training
c1,6,162.443,0.541669,271.266,28.8282,0,0,-,1,170.167,129.927,49,182.979,0,L,R,170.167,0,129.927,300,1,1,0,green,trained,156.388,6.055,yes,training
c2,6,398.474,1.32872,258.653,41.4406,0,0,-,6,166.563,0,51,68.0666,12,L,R,166.563,0,0,300,1,6,0,green,trained,315.131,83.343,yes,training
c3,6,1341.92,4.47467,250.645,49.048,9,17.0167,88.6868,16,143.34,0,2,9.60941,156,L,R,143.34,17.0167,0,88.6868,0.893882201,16,9,green,trained,1062.02,279.9,yes,training
x1,6,503.192,1.6779,232.227,67.6662,2,9.8096,215.611,6,236.632,0,51,54.6535,30,L,R,236.632,9.8096,0,215.611,0.960195032,6,2,green,trained,330.775,172.417,yes,training
x2,6,685.208,2.28484,123.721,176.172,3,13.8135,47.4465,6,86.0843,0.200196,21,65.4641,78,L,R,86.0843,13.8135,0.200196,47.4465,0.861723682,6,3,green,trained,369.372,315.836,no,training
x3,6,619.575,2.06598,263.658,36.2355,2,5.40529,163.76,5,32.4318,55.0539,21,103.902,57,L,R,32.4318,5.40529,55.0539,163.76,0.857143084,5,2,green,trained,519.135,100.44,no,training
v1,6,349.529,1.16551,274.269,25.8253,4,14.0137,82.0804,4,155.152,61.0598,14,95.0931,22,L,R,155.152,14.0137,61.0598,82.0804,0.917159921,4,4,green,trained,264.763,84.766,yes,training
v2,6,316.222,1.05445,199.395,100.699,0,0,-,5,257.652,0,65,65.0637,4,L,R,257.652,0,0,300,1,5,0,green,trained,149.122,167.1,yes,training
g1,6,458.93,1.53031,249.244,50.8498,3,15.4151,40.6398,3,31.2306,87.6858,26,114.112,40,L,R,31.2306,15.4151,87.6858,40.6398,0.669527952,3,3,green,untrained,357.398,101.532,no,training
g2,6,584.461,1.94889,214.81,85.2835,4,17.2169,166.363,6,177.173,0,11,37.0363,69,L,R,177.173,17.2169,0,166.363,0.911431098,6,4,green,trained,355.324,229.137,no,training
g3,6,576.952,1.92386,130.928,168.365,0,0,-,15,55.8547,31.2306,5,15.4151,69,L,R,55.8547,0,31.2306,300,1,15,0,green,trained,218.039,358.913,no,training
w1,7,387.654,1.29264,183.58,116.514,0,0,-,3,189.385,79.0774,43,111.91,20,L,R,189.385,0,79.0774,300,1,3,0,blue,trained,196.651,191.003,yes,training
w2,7,827.427,2.75907,209.005,90.4886,7,85.0833,6.80666,11,59.8586,102.5,9,14.8145,96,L,R,59.8586,85.0833,102.5,6.80666,0.412983409,11,7,blue,untrained,561.327,266.1,yes,training
w3,7,659.004,2.19746,114.312,184.981,5,22.8223,21.0206,10,100.298,0.200196,15,94.0921,77,L,R,100.298,22.8223,0.200196,21.0206,0.814634142,10,5,blue,trained,254.728,404.276,yes,training
e1,7,651.604,2.17278,191.988,108.106,7,40.4396,136.934,8,152.349,10.8106,31,72.8713,67,L,R,152.349,40.4396,10.8106,136.934,0.790238634,8,7,blue,trained,313.856,337.748,yes,training
e2,7,353.557,1.17894,145.743,154.351,9,59.8586,32.0314,1,82.2806,217.813,55,61.4602,22,L,R,82.2806,59.8586,217.813,32.0314,0.578873386,1,9,blue,untrained,115.747,237.81,yes,training
e3,7,643.803,2.14677,196.392,103.501,1,3.60353,171.168,20,145.743,19.0186,17,13.4131,70,L,R,145.743,3.60353,19.0186,171.168,0.975871351,20,1,blue,trained,370.805,272.998,yes,training
a1,7,665.345,2.21861,138.936,161.158,5,26.2257,1.40137,10,145.743,76.8753,25,31.631,72,L,R,145.743,26.2257,76.8753,1.40137,0.847497248,10,5,blue,untrained,282.738,382.607,yes,training
a2,7,792.227,2.64169,220.816,79.2776,10,26.6261,7.40725,5,122.92,19.0186,25,15.2149,85,L,R,122.92,26.6261,19.0186,7.40725,0.821953899,5,10,blue,untrained,526.801,265.426,yes,training
a3,7,997.792,3.32715,202.999,96.8949,7,46.6457,40.6398,5,10.0098,18.0176,15,19.6192,118,L,R,10.0098,46.6457,18.0176,40.6398,0.176678345,5,7,blue,trained,809.099,188.693,no,training
b2,7,358.643,1.1959,181.578,118.516,4,30.8302,54.4533,4,18.2178,2.80274,7,118.516,28,L,R,18.2178,30.8302,2.80274,54.4533,0.371427989,4,4,blue,trained,182.807,175.836,no,training
b3,7,720.442,2.40232,123.521,176.373,7,37.6368,65.8645,7,22.0216,0,2,1.00098,87,L,R,22.0216,37.6368,0,65.8645,0.369128237,7,7,blue,trained,291.989,428.453,yes,training
c1,7,389.25,1.29796,264.259,35.8351,2,203.199,96.2943,8,53.2521,0,73,84.2825,7,R,L,203.199,53.2521,96.2943,0,0.792349887,2,8,green,untrained,288.73,100.52,yes,training
c2,7,468.833,1.56333,276.471,23.6231,3,172.969,53.4523,2,16.6163,0,63,72.2708,22,R,L,172.969,16.6163,53.4523,0,0.912354492,3,2,green,untrained,403.143,65.69,yes,training
c3,7,1786.87,5.95836,259.654,39.839,11,63.8625,14.6143,25,41.0402,1.40137,1,0.400392,232,R,L,63.8625,41.0402,14.6143,1.40137,0.60877842,11,25,green,untrained,1447.92,338.95,yes,training
x1,7,497.631,1.65936,239.034,61.0598,5,170.367,17.4171,2,2.00196,196.192,34,94.6927,37,R,L,170.367,2.00196,17.4171,196.192,0.988385612,5,2,green,trained,380.248,117.383,yes,training
x2,7,496.931,1.65702,260.855,39.2384,5,244.84,20.0196,3,11.211,0,38,27.2267,18,R,L,244.84,11.211,20.0196,0,0.956215754,5,3,green,untrained,356.071,140.86,yes,training
x3,7,446.296,1.48818,239.635,60.4592,8,127.525,22.6221,1,10.8106,253.648,33,52.4514,27,R,L,127.525,10.8106,22.6221,253.648,0.921852365,8,1,green,trained,345.122,101.174,yes,training
v1,7,694.418,2.31555,269.864,30.2296,7,102.901,31.0304,1,9.40921,96.8949,24,58.257,66,R,L,102.901,9.40921,31.0304,96.8949,0.916221241,7,1,green,trained,559.22,135.198,yes,training
v2,7,162.178,0.540784,297.091,3.00294,1,297.892,2.20216,0,0,-,53,106.304,0,R,L,297.892,0,2.20216,300,1,1,0,green,trained,143.683,18.495,yes,training
v3,7,632.773,2.10999,206.802,93.2913,8,113.111,6.00588,3,29.0284,124.322,25,77.0755,68,R,L,113.111,29.0284,6.00588,124.322,0.795775133,8,3,green,trained,420.033,212.74,yes,training
g1,7,564.757,1.88319,242.037,58.0568,11,42.8419,5.2051,4,36.6359,62.4612,29,81.4798,62,R,L,42.8419,36.6359,5.2051,62.4612,0.539042349,11,4,green,trained,420.415,144.342,no,training
g2,7,818.254,2.72848,189.986,110.108,10,110.308,51.4504,6,66.0647,0,24,78.677,89,R,L,110.308,66.0647,51.4504,0,0.62542559,10,6,green,untrained,490.426,327.828,no,training
g3,7,939.019,3.13117,155.752,144.141,9,39.2384,54.8537,8,43.2423,0,4,2.20216,131,R,L,39.2384,43.2423,54.8537,0,0.475728261,9,8,green,untrained,478.074,460.945,no,training
w1,8,356.111,1.18746,218.614,81.4798,2,187.584,110.308,3,51.8508,48.4474,49,98.8968,6,R,L,187.584,51.8508,110.308,48.4474,0.783445013,2,3,blue,untrained,218.798,137.313,yes,training
w2,8,316.321,1.05478,214.01,84.6829,1,0.600588,235.23,10,224.019,1.20118,14,12.6123,22,R,L,0.600588,224.019,235.23,1.20118,0.002673801,1,10,blue,untrained,149.494,166.827,no,training
w3,8,781.424,2.60567,175.572,123.921,16,160.557,40.0392,7,29.629,12.212,23,21.8214,98,R,L,160.557,29.629,40.0392,12.212,0.844210405,16,7,blue,untrained,377.293,404.131,yes,training
e1,8,447.535,1.49231,249.845,50.2492,4,161.558,81.8802,5,82.8811,0.600588,47,136.333,31,R,L,161.558,82.8811,81.8802,0.600588,0.660933541,4,5,blue,untrained,263.755,183.78,yes,training
e2,8,519.868,1.73351,157.754,142.339,4,113.511,16.2159,4,39.0382,98.096,37,39.839,45,R,L,113.511,39.0382,16.2159,98.096,0.744094364,4,4,blue,trained,200.063,319.805,yes,training
e3,8,2.38374,0.0783358,30.63,0,0,0,-,1,30.63,269.464,2,1.00098,0,R,L,0,30.63,300,269.464,0,0,1,blue,untrained,2.38374,0,no,training
a1,8,601.353,2.00522,221.217,78.8772,7,196.192,13.0127,2,12.0118,117.515,35,36.4357,50,R,L,196.192,12.0118,13.0127,117.515,0.942307489,7,2,blue,trained,375.677,225.676,yes,training
a2,8,484.504,1.61559,233.028,66.8655,3,175.372,0,4,26.2257,31.631,54,58.4572,38,R,L,175.372,26.2257,0,31.631,0.869910718,3,4,blue,trained,303.619,180.885,yes,training
a3,8,1121.06,3.73818,213.609,86.0843,12,35.2345,0,3,12.212,77.2757,4,4.20412,141,R,L,35.2345,12.212,0,77.2757,0.742615367,12,3,blue,trained,869.695,251.365,no,training
b2,8,508.343,1.69508,162.159,136.734,9,107.105,83.6819,5,60.0588,1.60157,14,9.60941,54,R,L,107.105,60.0588,83.6819,1.60157,0.640718864,9,5,blue,untrained,199.318,309.025,yes,training
b3,8,494.63,1.64935,128.526,170.367,2,4.8047,123.721,6,69.468,0,7,56.0549,42,R,L,4.8047,69.468,123.721,0,0.064689987,2,6,blue,untrained,204.863,289.767,no,training
c1,8,234.338,0.781405,290.084,10.0098,1,3.20314,3.20314,1,245.24,54.8537,70,167.564,0,L,R,245.24,3.20314,54.8537,3.20314,0.987107151,1,1,green,untrained,206.961,27.377,yes,training
c3,8,1173.88,3.91434,280.475,19.2188,2,4.40431,118.116,21,149.346,0.200196,6,3.60353,119,L,R,149.346,4.40431,0.200196,118.116,0.971354139,21,2,green,trained,1079.48,94.4,yes,training
c2,8,413.946,1.38031,272.267,27.627,0,0,-,10,197.193,7.60745,33,41.4406,19,L,R,197.193,0,7.60745,300,1,10,0,green,trained,334.508,79.438,yes,training
x1,8,488.516,1.63114,257.252,41.841,2,8.80862,253.448,9,255.25,0.400392,61,69.2678,26,L,R,255.25,8.80862,0.400392,253.448,0.966641422,9,2,green,trained,342.393,146.123,yes,training
x2,8,511.136,1.70439,180.577,119.317,5,28.2276,56.4553,5,88.6868,5.2051,28,91.6898,49,L,R,88.6868,28.2276,5.2051,56.4553,0.75856182,5,5,green,trained,282.34,228.796,no,training
x3,8,543.734,1.81309,213.409,86.4847,2,10.6104,260.655,8,122.52,12.8125,17,17.0167,45,L,R,122.52,10.6104,12.8125,260.655,0.920300698,8,2,green,trained,356.557,187.177,yes,training
v1,8,526.818,1.76139,250.245,48.8478,3,20.6202,137.334,4,165.762,0.800784,49,84.2825,46,L,R,165.762,20.6202,0.800784,137.334,0.889366045,4,3,green,trained,369.591,157.227,yes,training
v2,8,234.991,0.783583,282.877,17.2169,0,0,-,1,296.891,3.20314,84,80.8792,0,L,R,296.891,0,3.20314,300,1,1,0,green,trained,200.44,34.551,yes,training
v3,8,518.752,1.72979,215.211,84.2825,2,3.40333,184.781,10,204,8.80862,12,17.2169,37,L,R,204,3.40333,8.80862,184.781,0.983590765,10,2,green,trained,358.841,159.911,yes,training
g1,8,407.308,1.35817,255.45,44.6437,3,7.60745,0,4,60.6594,24.8243,19,152.149,30,L,R,60.6594,7.60745,24.8243,0,0.888563043,4,3,green,untrained,334.531,72.777,no,training
g2,8,332.531,1.10883,252.447,47.6466,3,10.6104,231.026,4,242.237,0,9,194.991,24,L,R,242.237,10.6104,0,231.026,0.958036349,4,3,green,trained,149.704,182.827,no,training
g3,8,804.711,2.68332,167.764,132.129,6,31.631,17.2169,15,102.1,52.051,5,4.20412,94,L,R,102.1,31.631,52.051,17.2169,0.763472942,15,6,green,untrained,403.833,400.878,no,training
w1,9,396.348,1.32163,256.651,43.4425,3,22.422,7.40725,4,252.247,40.0392,70,126.123,11,L,R,252.247,22.422,40.0392,7.40725,0.918367198,4,3,blue,untrained,259.516,136.832,yes,training
w2,9,654.025,2.20292,180.176,116.914,1,4.00392,130.127,15,163.56,3.00294,7,26.8263,68,L,R,163.56,4.00392,3.00294,130.127,0.976105119,15,1,blue,trained,346.996,307.029,no,training
w3,9,492.968,1.64381,202.398,96.6947,8,69.8684,0,10,176.773,100.098,15,84.4827,37,L,R,176.773,69.8684,100.098,0,0.716720713,10,8,blue,untrained,253.122,239.846,yes,training
e1,9,345.051,1.15058,254.649,45.4445,3,28.4278,30.0294,2,233.228,17.2169,69,120.918,4,L,R,233.228,28.4278,17.2169,30.0294,0.891354214,2,3,blue,trained,232.747,112.304,yes,training
e2,9,420.702,1.40284,152.95,147.144,2,5.80568,78.4768,3,166.363,108.706,38,44.6437,22,L,R,166.363,5.80568,108.706,78.4768,0.966279117,3,2,blue,untrained,147.481,273.221,yes,training
e3,9,751.377,2.50548,202.598,97.2953,2,11.4112,138.335,14,168.365,0,11,22.6221,87,L,R,168.365,11.4112,0,138.335,0.936525525,14,2,blue,trained,419.963,331.414,yes,training
a1,9,527.265,1.75818,220.816,79.2776,3,22.2218,0,6,217.413,30.2296,44,33.8331,25,L,R,217.413,22.2218,30.2296,0,0.90726806,6,3,blue,untrained,299.831,227.434,yes,training
a2,9,157.064,0.523731,296.891,3.20314,0,0,-,1,287.481,12.6123,80,160.557,0,L,R,287.481,0,12.6123,300,1,1,0,blue,trained,149.905,7.159,yes,training
a3,9,731.739,2.44,174.971,124.922,13,85.8841,0,4,37.2365,148.746,7,4.60451,88,L,R,37.2365,85.8841,148.746,0,0.302439234,4,13,blue,untrained,465.644,266.095,no,training
b2,9,412.857,1.37668,230.025,69.8684,2,21.8214,74.8733,6,218.614,0,45,30.8302,20,L,R,218.614,21.8214,0,74.8733,0.90924215,6,2,blue,trained,256.378,156.479,yes,training
b3,9,388.14,1.29426,247.442,52.4514,0,0,-,9,249.444,0,39,28.8282,13,L,R,249.444,0,0,300,1,9,0,blue,trained,257.753,130.387,yes,training
c1,9,426.267,1.42139,230.025,70.0686,4,219.615,59.0578,3,33.4327,11.6114,56,108.106,17,R,L,219.615,33.4327,59.0578,11.6114,0.86787985,4,3,green,untrained,229.041,197.226,yes,training
c2,9,242.129,0.807383,288.482,11.6114,2,182.579,101.9,1,1.20118,0,67,157.554,0,R,L,182.579,1.20118,101.9,0,0.993464039,2,1,green,untrained,217.941,24.188,yes,training
c3,9,1278.4,4.26285,279.073,21.0206,4,111.309,15.8155,11,23.2227,3.00294,1,0.200196,145,R,L,111.309,23.2227,15.8155,3.00294,0.827381205,4,11,green,untrained,1184.21,94.19,yes,training
x1,9,528.38,1.76189,215.011,85.0833,5,137.935,21.421,2,11.211,71.2698,48,60.4592,44,R,L,137.935,11.211,21.421,71.2698,0.924832044,5,2,green,trained,311.104,217.276,yes,training
x2,9,436.307,1.45487,258.453,41.6408,3,263.658,17.4171,3,11.0108,0.600588,49,52.051,10,R,L,263.658,11.0108,17.4171,0.600588,0.959912447,3,3,green,untrained,259.977,176.33,yes,training
x3,9,581.919,1.94042,128.326,171.768,6,88.0862,75.2737,4,13.2129,11.4112,18,12.6123,59,R,L,88.0862,13.2129,75.2737,11.4112,0.869565475,6,4,green,untrained,244.313,337.606,no,training
v1,9,454.058,1.51406,182.579,117.515,1,16.4161,283.678,7,127.325,0,35,114.512,31,R,L,16.4161,127.325,283.678,0,0.114206027,1,7,green,untrained,355.626,98.432,yes,training
v2,9,234.593,0.782254,276.07,24.0235,1,271.866,28.2276,1,2.80274,20.2198,104,133.531,0,R,L,271.866,2.80274,28.2276,20.2198,0.989795927,1,1,green,untrained,168.186,66.407,yes,training
v3,9,185.287,0.617844,270.865,29.2286,1,295.089,5.0049,0,0,-,77,97.4955,0,R,L,295.089,0,5.0049,300,1,1,0,green,trained,155.228,30.059,yes,training
g1,9,284.653,0.949181,242.237,57.6564,5,29.629,13.0127,1,13.2129,36.0353,18,205.001,16,R,L,29.629,13.2129,13.0127,36.0353,0.691589309,5,1,green,trained,177.353,107.3,no,training
g2,9,55.4357,0.184851,67.4661,232.628,1,296.29,3.80372,0,0,-,10,282.276,0,R,L,296.29,0,3.80372,300,1,1,0,green,trained,12.2147,43.221,no,training
g3,9,622.314,2.07512,107.705,191.788,3,6.00588,116.714,16,108.706,0,6,3.60353,73,R,L,6.00588,108.706,116.714,0,0.052356216,3,16,green,untrained,220.797,401.517,no,training
w1,10,291.022,0.970417,216.011,84.0823,1,82.4808,217.613,5,200.797,0,32,152.149,1,R,L,82.4808,200.797,217.613,0,0.291165774,1,5,blue,untrained,155.886,135.136,yes,training
w2,10,61.9644,0.277098,146.744,77.0755,0,0,-,1,223.819,76.2747,7,6.80666,0,R,L,0,223.819,300,76.2747,0,0,1,blue,untrained,35.9969,25.9675,no,training
w3,10,624.876,2.08366,139.136,160.557,12,141.739,0,4,17.6172,20.6202,20,26.0255,73,R,L,141.739,17.6172,0,20.6202,0.889447665,12,4,blue,trained,227.132,397.744,yes,training
e1,10,418.821,1.39657,245.24,54.8537,4,161.959,5.40529,7,65.6643,36.6359,26,124.722,28,R,L,161.959,65.6643,5.40529,36.6359,0.711522063,4,7,blue,trained,265.261,153.56,yes,training
e2,10,266.41,0.888347,211.207,88.887,1,214.41,10.21,1,10.6104,255.45,68,108.907,0,R,L,214.41,10.6104,10.21,255.45,0.952846942,1,1,blue,trained,174.647,91.763,yes,training
e3,10,540.846,1.80346,128.726,171.368,1,20.42,224.22,9,203.199,0,10,9.8096,50,R,L,20.42,203.199,224.22,0,0.091316033,1,9,blue,untrained,194.583,346.263,no,training
a1,10,762.799,2.54357,201.397,98.6966,7,117.115,100.699,10,63.2619,0,20,20.8204,86,R,L,117.115,63.2619,100.699,0,0.64927937,7,10,blue,untrained,406.027,356.772,yes,training
a2,10,306.874,1.02328,266.661,33.2325,3,222.218,30.4298,4,27.627,0,56,157.554,7,R,L,222.218,27.627,30.4298,0,0.889423443,3,4,blue,untrained,194.311,112.563,yes,training
a3,10,691.673,2.30639,133.13,166.963,5,22.0216,162.559,9,54.6535,0,3,0.800784,89,R,L,22.0216,54.6535,162.559,0,0.287206668,5,9,blue,untrained,316.702,374.971,no,training
b2,10,28.2613,0.0942378,174.371,125.723,0,0,-,1,297.892,2.20216,5,13.0127,0,R,L,0,297.892,300,2.20216,0,0,1,blue,untrained,10.0418,18.2195,yes,training
b3,10,239.275,0.797868,67.2659,231.827,1,11.211,191.988,4,37.0363,0.600588,50,70.2688,12,R,L,11.211,37.0363,191.988,0.600588,0.232365334,1,4,blue,untrained,57.2318,182.0432,no,training
c1,10,125.831,0.419585,289.283,10.8106,0,0,-,2,291.686,0,33,221.817,0,L,R,291.686,0,0,300,1,2,0,green,trained,119.219,6.612,yes,training
c2,10,600.568,2.0026,230.426,69.468,4,5.40529,85.8841,6,91.6898,0,35,83.0813,47,L,R,91.6898,5.40529,0,85.8841,0.944329935,6,4,green,trained,435.068,165.5,yes,training
c3,10,892.985,3.01389,269.063,27.4269,4,10.0098,98.2962,13,164.761,3.60353,11,10.8106,78,L,R,164.761,10.0098,3.60353,98.2962,0.94272613,13,4,green,trained,803.783,89.202,yes,training
x1,10,322.455,1.07523,262.857,37.2365,1,5.0049,260.855,4,254.85,0,50,127.325,3,L,R,254.85,5.0049,0,260.855,0.980739636,4,1,green,trained,279.865,42.59,yes,training
x2,10,3.65572,0.0121901,154.351,145.743,0,0,-,1,300.094,0,0,0,0,L,R,300.094,0,0,300,1,1,0,green,trained,0.997415,2.658305,no,training
x3,10,483.862,1.61345,148.145,151.548,9,101.499,0,3,26.4259,162.159,25,45.4445,44,L,R,26.4259,101.499,162.159,0,0.206573544,3,9,green,untrained,244.012,239.85,no,training
v1,10,425.396,1.41849,177.974,122.12,8,127.124,31.2306,3,98.4964,92.6907,26,58.6574,38,L,R,98.4964,127.124,92.6907,31.2306,0.436558042,3,8,green,untrained,242.842,182.554,yes,training
v2,10,172.023,0.573614,297.291,2.80274,0,0,-,1,300.094,0,95,144.542,0,L,R,300.094,0,0,300,1,1,0,green,trained,169.176,2.847,yes,training
v3,10,245.666,0.819177,270.665,28.628,2,7.20706,5.80568,5,262.057,37.2365,66,77.4759,0,L,R,262.057,7.20706,37.2365,5.80568,0.97323423,5,2,green,untrained,204.357,41.309,yes,training
g1,10,340.066,1.13396,123.321,176.773,0,0,-,6,152.349,4.60451,27,173.17,22,L,R,152.349,0,4.60451,300,1,6,0,green,trained,182,158.066,no,training
g2,10,585.286,1.95165,210.006,90.0882,4,12.8125,103.301,8,156.153,0,32,104.703,62,L,R,156.153,12.8125,0,103.301,0.924170911,8,4,green,trained,380.501,204.785,no,training
g3,10,669.93,2.23389,116.914,182.979,5,33.6329,174.971,12,74.4729,2.00196,10,3.60353,88,L,R,74.4729,33.6329,2.00196,174.971,0.688889033,12,5,green,trained,241.309,428.621,no,training
w1,11,383.018,1.27718,251.046,49.048,4,21.421,17.0167,3,224.42,40.2394,65,111.109,15,L,R,224.42,21.421,40.2394,17.0167,0.912866446,3,4,blue,untrained,229.04,153.978,yes,training
w3,11,677.052,2.25764,86.8851,213.009,12,64.8635,0,9,56.6555,99.8978,16,28.628,98,L,R,56.6555,64.8635,99.8978,0,0.466227504,9,12,blue,untrained,197.422,479.63,no,training
e1,11,156.397,0.521508,290.685,9.40921,0,0,-,2,293.487,0,62,200.997,0,L,R,293.487,0,0,300,1,2,0,blue,trained,154.636,1.761,yes,training
e2,11,173.508,0.578565,295.089,5.0049,0,0,-,1,297.491,2.60255,100,167.764,0,L,R,297.491,0,2.60255,300,1,1,0,blue,trained,165.204,8.304,yes,training
e3,11,523.861,1.74682,142.139,157.955,6,128.926,0,6,60.6594,96.0941,12,34.0333,47,L,R,60.6594,128.926,96.0941,0,0.319958182,6,6,blue,untrained,258.868,264.993,no,training
a1,11,536.435,1.78875,247.442,52.6515,2,15.0147,253.849,6,231.427,0,47,63.2619,31,L,R,231.427,15.0147,0,253.849,0.939074028,6,2,blue,trained,347.331,189.104,yes,training
a2,11,299.694,1.0587,241.637,41.6408,2,24.4239,16.8165,3,234.43,40.0392,74,140.337,1,L,R,234.43,24.4239,40.0392,16.8165,0.905646003,3,2,blue,untrained,145.275,154.419,yes,training
a3,11,858.11,2.86138,213.609,86.2845,5,54.0529,3.00294,8,28.8282,38.0372,10,24.2237,96,L,R,28.8282,54.0529,38.0372,3.00294,0.347825982,8,5,blue,untrained,676.97,181.14,no,training
b2,11,34.5111,0.115078,293.487,6.60647,0,0,-,1,300.094,0,13,18.0176,0,L,R,300.094,0,0,300,1,1,0,blue,trained,30.6539,3.8572,yes,training
b3,11,637.761,2.12805,173.57,126.324,3,7.80764,147.344,10,65.8645,0.200196,27,24.8243,71,L,R,65.8645,7.80764,0.200196,147.344,0.894021811,10,3,blue,trained,376.083,261.678,no,training
c1,11,330.935,1.10351,217.012,83.0813,1,151.148,63.4621,7,28.0274,7.40725,50,115.913,12,L,R,28.0274,151.148,7.40725,63.4621,0.156424375,7,1,green,trained,211.614,119.321,yes,training
c2,11,222.438,0.741725,250.645,49.048,4,241.436,41.6408,1,15.4151,5.80568,68,154.952,0,L,R,15.4151,241.436,5.80568,41.6408,0.060015706,1,4,green,trained,159.611,62.827,yes,training
c3,11,1253.86,4.18101,247.242,52.8517,13,121.519,0,7,17.6172,35.0343,5,3.40333,157,R,L,121.519,17.6172,0,35.0343,0.873381622,13,7,green,trained,994.614,259.246,yes,training
x1,11,231.921,0.773346,291.085,9.00882,1,211.407,88.6868,2,74.4729,2.20216,65,69.0676,0,R,L,211.407,74.4729,88.6868,2.20216,0.739495851,1,2,green,untrained,191.745,40.176,yes,training
x2,11,367.242,1.22458,169.766,130.328,7,27.4269,78.8772,2,82.6809,0,23,37.2365,29,R,L,27.4269,82.6809,78.8772,0,0.249091345,7,2,green,untrained,144.545,222.697,no,training
x3,11,193.425,0.644978,145.743,154.351,6,190.386,0,0,0,-,34,152.75,0,R,L,190.386,0,0,300,1,6,0,green,trained,133.366,60.059,no,training
v1,11,298.185,0.994304,263.258,36.8361,4,228.023,59.6584,3,47.4465,0,60,164.161,5,R,L,228.023,47.4465,59.6584,0,0.827761331,4,3,green,untrained,201.453,96.732,yes,training
v2,11,242.489,0.808585,271.266,28.8282,1,246.241,53.8527,2,33.6329,0,102,103.101,0,R,L,246.241,33.6329,53.8527,0,0.87982838,1,2,green,untrained,179.998,62.491,yes,training
v3,11,481.069,1.9489,174.571,72.0706,6,92.6907,53.0519,4,64.8635,125.122,16,52.2512,40,R,L,92.6907,64.8635,53.0519,125.122,0.588309928,6,4,green,trained,320.816,160.253,no,training
g1,11,440.842,1.46999,209.805,90.2884,3,32.0314,7.00686,7,27.4269,34.8341,37,112.31,42,R,L,32.0314,27.4269,7.00686,34.8341,0.538720414,3,7,green,trained,248.412,192.43,no,training
g2,11,580.084,1.93559,259.054,40.84,9,207.403,0.200196,3,11.211,176.973,16,43.6427,56,R,L,207.403,11.211,0.200196,176.973,0.948717831,9,3,green,trained,414.623,165.461,no,training
g3,11,323.081,1.11683,172.769,115.913,0,0,-,9,118.516,10.6104,21,91.0892,23,R,L,0,118.516,300,10.6104,0,0,9,green,untrained,133.959,189.122,no,training
w1,12,572.644,1.90949,203.399,96.6947,5,187.183,30.0294,4,27.0265,0,62,80.2786,49,R,L,187.183,27.0265,30.0294,0,0.873831459,5,4,blue,untrained,243.822,328.822,yes,training
w2,12,860.879,2.87062,171.768,127.325,9,76.2747,56.2551,13,80.4788,8.40823,10,6.40627,106,R,L,76.2747,80.4788,56.2551,8.40823,0.486590092,9,13,blue,untrained,456.538,404.341,yes,training
w3,12,729.204,2.43154,82.6809,217.413,3,19.0186,165.162,12,70.2688,24.0235,13,54.6535,88,R,L,19.0186,70.2688,165.162,24.0235,0.213004298,3,12,blue,untrained,269.619,459.585,yes,training
e1,12,332.959,1.11026,268.663,31.4308,1,234.43,34.8341,4,42.6417,0,75,136.333,4,R,L,234.43,42.6417,34.8341,0,0.846098681,1,4,blue,untrained,236.438,96.521,yes,training
e2,12,374.067,1.24733,190.587,109.507,6,191.788,12.6123,3,18.2178,143.541,74,101.7,16,R,L,191.788,18.2178,12.6123,143.541,0.913250967,6,3,blue,trained,151.423,222.644,yes,training
e3,12,656.483,2.19052,173.17,126.524,4,32.2316,185.181,10,96.4945,31.0304,8,30.8302,69,R,L,32.2316,96.4945,185.181,31.0304,0.250389004,4,10,blue,untrained,338.39,318.093,no,training
a1,12,748.727,2.49664,221.417,78.4768,8,151.949,69.468,6,45.4445,0,36,34.2335,70,R,L,151.949,45.4445,69.468,0,0.76977712,8,6,blue,untrained,504.628,244.099,yes,training
a2,12,608.559,2.02925,222.818,77.0755,7,181.978,2.40235,2,3.00294,169.366,46,89.6878,61,R,L,181.978,3.00294,2.40235,169.366,0.983766219,7,2,blue,trained,303.462,305.097,yes,training
a3,12,610.496,2.03571,155.152,144.341,5,16.6163,122.92,7,29.2286,8.60843,19,20.42,64,R,L,16.6163,29.2286,122.92,8.60843,0.362445986,5,7,blue,untrained,316.371,294.125,no,training
b2,12,439.816,1.46658,227.423,71.2698,8,140.538,47.4465,8,80.8792,9.20902,35,31.4308,34,R,L,140.538,80.8792,47.4465,9.20902,0.634720338,8,8,blue,untrained,272.748,167.068,no,training
b3,12,357.618,1.19248,145.542,154.151,0,0,-,5,23.0225,0,26,60.259,29,R,L,0,23.0225,300,0,0,0,5,blue,untrained,176.02,181.598,yes,training
c1,12,361.253,1.2046,241.436,58.6574,3,31.631,0,3,212.008,76.8753,61,101.7,3,L,R,212.008,31.631,76.8753,0,0.870172674,3,3,green,untrained,253.372,107.881,yes,training
c2,12,571.153,1.90452,251.847,48.2472,2,6.20608,135.733,10,174.571,0,41,39.839,41,L,R,174.571,6.20608,0,135.733,0.965669984,10,2,green,trained,430.568,140.585,yes,training
c3,12,1207.95,4.02791,248.243,51.2502,17,27.8272,75.2737,12,145.142,0,4,1.80176,130,L,R,145.142,27.8272,0,75.2737,0.839120491,12,17,green,trained,976.262,231.688,yes,training
x1,12,360.171,1.201,247.442,52.6515,0,0,-,9,248.844,10.8106,63,80.679,6,L,R,248.844,0,10.8106,300,1,9,0,green,trained,255.493,104.678,yes,training
x2,12,442.309,1.47488,265.26,34.8341,5,23.0225,6.80666,2,238.233,46.2453,54,64.0627,11,L,R,238.233,23.0225,46.2453,6.80666,0.911877453,2,5,green,untrained,349.565,92.744,yes,training
x3,12,230.226,1.28492,59.258,120.118,0,0,-,5,69.2678,120.718,24,18.6182,3,L,R,69.2678,0,120.718,300,1,5,0,green,trained,66.3177,163.9083,no,training
v1,12,397.65,1.32597,256.251,43.8429,2,7.80764,232.227,5,240.836,0,65,103.902,15,L,R,240.836,7.80764,0,232.227,0.968599076,5,2,green,trained,277.162,120.488,yes,training
v2,12,178.194,0.594192,292.887,7.20706,0,0,-,1,300.094,0,100,146.343,0,L,R,300.094,0,0,300,1,1,0,green,trained,169.225,8.969,yes,training
v3,12,309.069,1.03059,258.453,41.6408,1,6.00588,207.403,3,243.038,0,58,68.6672,0,L,R,243.038,6.00588,0,207.403,0.97588425,3,1,green,trained,238.822,70.247,yes,training
g1,12,571.709,1.90637,226.422,73.6721,5,16.6163,0,6,69.0676,62.8615,35,92.4906,56,L,R,69.0676,16.6163,62.8615,0,0.80607442,6,5,green,untrained,402.794,168.915,yes,training
g2,12,1026.04,3.42133,194.39,105.303,10,42.8419,44.0431,10,129.126,0,15,39.0382,141,L,R,129.126,42.8419,0,44.0431,0.750872692,10,10,green,trained,480.412,545.628,yes,training
g3,12,532.834,1.86384,166.763,118.516,0,0,-,17,136.333,14.0137,4,5.0049,59,L,R,136.333,0,14.0137,300,1,17,0,green,trained,275.751,257.083,no,training
w1,13,466.599,1.55588,174.371,125.723,2,6.40627,141.539,6,189.786,15.4151,51,110.508,33,L,R,189.786,6.40627,15.4151,141.539,0.967346981,6,2,blue,trained,186.511,280.088,yes,training
w2,13,634.662,2.1177,179.576,120.318,2,7.80764,146.543,16,158.956,11.8116,16,24.4239,74,L,R,158.956,7.80764,11.8116,146.543,0.953181401,16,2,blue,trained,273.026,361.636,no,training
w3,13,749.692,2.49986,89.0872,211.007,6,34.2335,19.0186,6,40.84,44.0431,15,11.4112,95,L,R,40.84,34.2335,44.0431,19.0186,0.544000213,6,6,blue,untrained,232.265,517.427,no,training
e1,13,219.096,0.730578,297.091,3.00294,0,0,-,2,290.685,5.0049,75,157.354,0,L,R,290.685,0,5.0049,300,1,2,0,blue,trained,214.28,4.816,yes,training
e2,13,348.992,1.16372,258.253,41.6408,1,10.6104,236.832,4,253.648,0,71,83.6819,7,L,R,253.648,10.6104,0,236.832,0.959848391,4,1,blue,trained,219.812,129.18,yes,training
e3,13,605.598,2.01938,159.756,139.737,2,4.8047,220.015,16,137.935,2.80274,8,21.6212,63,L,R,137.935,4.8047,2.80274,220.015,0.966339428,16,2,blue,trained,309.648,295.95,yes,training
a1,13,694.413,2.31553,243.639,56.4553,5,20.6202,159.356,6,204.2,0,45,31.4308,56,L,R,204.2,20.6202,0,159.356,0.908281373,6,5,blue,trained,458.66,235.753,yes,training
a2,13,875.761,2.92024,214.41,85.6839,9,62.6613,0,5,40.4396,50.8498,18,9.20902,103,L,R,40.4396,62.6613,50.8498,0,0.392233239,5,9,blue,untrained,559.853,315.908,yes,training
a3,13,605.483,2.01899,99.8978,200.196,6,49.4484,0,5,18.8184,105.103,11,8.00784,66,L,R,18.8184,49.4484,105.103,0,0.275659618,5,6,blue,untrained,208.796,396.687,no,training
b2,13,296.842,0.989824,269.264,29.4288,1,18.2178,209.605,9,255.65,11.0108,31,24.6241,5,L,R,255.65,18.2178,11.0108,209.605,0.933479584,9,1,blue,trained,178.07,118.772,yes,training
b3,13,467.948,1.56038,104.302,195.591,3,10.8106,67.6662,4,8.80862,6.00588,34,26.2257,48,L,R,8.80862,10.8106,6.00588,67.6662,0.448979113,4,3,blue,trained,154.564,313.384,no,training
c1,13,613.325,2.04514,178.575,121.519,8,110.708,9.00882,9,41.0402,59.8586,25,19.6192,61,R,L,110.708,41.0402,9.00882,59.8586,0.729550664,8,9,green,trained,328.356,284.969,yes,training
c2,13,405.446,1.35197,246.241,53.8527,4,235.831,14.8145,1,3.20314,295.089,58,71.8704,15,R,L,235.831,3.20314,14.8145,295.089,0.986599655,4,1,green,trained,280.973,124.473,no,training
c3,13,1215.44,4.05289,242.037,58.0568,10,129.527,15.4151,12,23.0225,0,5,2.00196,149,R,L,129.527,23.0225,15.4151,0,0.849081773,10,12,green,untrained,920.644,294.796,yes,training
x1,13,319.798,1.06708,287.882,12.0118,3,266.06,4.60451,1,2.60255,251.847,74,129.327,0,R,L,266.06,2.60255,4.60451,251.847,0.990312941,3,1,green,trained,265.703,54.095,yes,training
x2,13,311.682,1.03931,220.416,79.678,2,199.195,86.2845,2,47.2463,2.80274,66,90.4886,0,R,L,199.195,47.2463,86.2845,2.80274,0.808285787,2,2,green,untrained,187.411,124.271,yes,training
x3,13,390.511,1.30653,103.902,195.191,1,5.2051,264.459,10,80.679,27.8272,23,29.629,28,R,L,5.2051,80.679,264.459,27.8272,0.060606096,1,10,green,untrained,123.408,267.103,no,training
v1,13,237.499,0.792473,264.459,35.2345,3,279.874,0.200196,0,0,-,70,175.772,0,R,L,279.874,0,0.200196,300,1,3,0,green,trained,171.645,65.854,yes,training
v2,13,192.655,0.642411,300.094,0,1,290.885,9.20902,0,0,-,101,120.118,0,R,L,290.885,0,9.20902,300,1,1,0,green,trained,192.655,0,yes,training
v3,13,418.587,1.39579,171.168,128.926,6,67.4661,174.571,4,104.102,0,29,25.8253,29,R,L,67.4661,104.102,174.571,0,0.393232192,6,4,green,untrained,244.125,174.462,yes,training
g1,13,524.382,1.74856,270.064,30.0294,5,53.4523,34.8341,4,10.0098,21.2208,45,67.2659,39,R,L,53.4523,10.0098,34.8341,21.2208,0.842271214,5,4,green,untrained,440.344,84.038,yes,training
g2,13,955.894,3.20026,175.772,123.121,10,55.6545,63.6623,7,70.6692,1.20118,22,33.4327,118,R,L,55.6545,70.6692,63.6623,1.20118,0.440570534,10,7,green,untrained,520.044,435.85,no,training
g3,13,421.381,1.4051,149.546,150.347,0,0,-,11,78.0764,0,15,24.8243,38,R,L,0,78.0764,300,0,0,0,11,green,untrained,171.759,249.622,yes,training
w1,14,615.386,2.05201,231.026,68.8674,7,191.788,5.80568,5,19.6192,157.154,57,53.6525,61,R,L,191.788,19.6192,5.80568,157.154,0.907197106,7,5,blue,trained,343.643,271.743,yes,training
w2,14,462.198,2.02876,136.934,90.889,5,101.099,156.553,8,56.4553,72.0706,5,5.0049,44,R,L,101.099,56.4553,156.553,72.0706,0.641677187,5,8,blue,untrained,131.996,330.202,no,training
w3,14,1056.2,3.52192,187.584,112.11,14,123.321,30.63,10,34.8341,18.6182,23,36.4357,144,R,L,123.321,34.8341,30.63,18.6182,0.779747223,14,10,blue,untrained,536.832,519.368,yes,training
e1,14,516.177,1.7212,257.652,42.4416,3,204.801,36.0353,10,53.2521,0.600588,76,120.118,27,R,L,204.801,53.2521,36.0353,0.600588,0.793638984,3,10,blue,untrained,343.807,172.37,yes,training
e2,14,408.296,1.36147,179.776,120.318,3,22.422,2.60255,5,156.553,13.2129,20,37.4367,36,R,L,22.422,156.553,2.60255,13.2129,0.125280067,3,5,blue,trained,146.953,261.343,yes,training
e3,14,863.771,2.88026,196.392,103.702,6,25.0245,149.346,15,112.31,12.8125,4,8.60843,105,R,L,25.0245,112.31,149.346,12.8125,0.182215685,6,15,blue,untrained,541.263,322.508,no,training
a1,14,697.427,2.32558,208.804,91.2894,6,175.972,53.0519,5,47.8468,0,31,27.2267,52,R,L,175.972,47.8468,53.0519,0,0.786225286,6,5,blue,untrained,382.12,315.307,yes,training
a2,14,356.681,1.18936,263.058,37.0363,5,268.263,0,1,5.2051,255.05,91,99.4974,8,R,L,268.263,5.2051,0,255.05,0.980966336,5,1,blue,trained,210.248,146.433,yes,training
a3,14,842.109,2.81366,106.704,192.789,13,42.8419,29.4288,8,19.0186,0.600588,9,9.60941,98,R,L,42.8419,19.0186,29.4288,0.600588,0.69255664,13,8,blue,untrained,373.696,468.413,no,training
b2,14,205.765,1.25958,110.909,52.6515,1,54.0529,246.041,3,89.2874,136.534,14,16.0157,0,R,L,54.0529,89.2874,246.041,136.534,0.377094927,1,3,blue,untrained,110.99,94.775,yes,training
b3,14,592.6,1.97603,69.6682,229.825,10,64.4631,82.2806,6,49.8488,0,12,6.60647,60,R,L,64.4631,49.8488,82.2806,0,0.563922916,10,6,blue,untrained,129.378,463.222,no,training
c1,14,390.854,1.30331,257.452,42.6417,3,17.4171,235.831,4,252.447,0,62,120.118,12,L,R,252.447,17.4171,0,235.831,0.935459737,4,3,green,trained,251.228,139.626,yes,training
c2,14,327.439,1.09185,280.274,19.8194,0,0,-,4,292.887,0,65,77.2757,0,L,R,292.887,0,0,300,1,4,0,green,trained,254.979,72.46,yes,training
c3,14,1417.02,4.72507,227.823,72.2708,10,20.0196,0,15,131.929,9.60941,1,1.00098,189,L,R,131.929,20.0196,9.60941,0,0.868247552,15,10,green,untrained,1051.07,365.95,yes,training
x1,14,460.327,1.53497,261.056,39.0382,1,3.20314,227.423,7,254.649,0,59,92.6907,21,L,R,254.649,3.20314,0,227.423,0.987577609,7,1,green,trained,313.46,146.867,yes,training
x2,14,103.996,0.346776,300.094,0,0,0,-,1,300.094,0,94,200.196,0,L,R,300.094,0,0,300,1,1,0,green,trained,103.996,0,yes,training
x3,14,724.42,2.43838,118.716,178.375,7,47.2463,166.563,11,56.0549,2.80274,9,22.6221,91,L,R,56.0549,47.2463,2.80274,166.563,0.542635516,11,7,green,trained,252.168,472.252,no,training
v1,14,281.539,0.938796,273.668,26.2257,2,13.2129,0,4,267.262,20.0196,66,164.962,0,L,R,267.262,13.2129,20.0196,0,0.952890972,4,2,green,untrained,177.243,104.296,yes,training
v2,14,487.838,1.6267,242.037,57.8566,3,8.80862,251.847,6,254.85,2.20216,47,34.8341,20,L,R,254.85,8.80862,2.20216,251.847,0.966590814,6,3,green,trained,328.777,159.061,yes,training
v3,14,195.369,0.65146,286.08,11.211,0,0,-,14,293.487,3.80372,78,61.26,0,L,R,293.487,0,3.80372,300,1,14,0,green,trained,172.286,23.083,yes,training
g1,14,502.665,1.67614,266.261,33.8331,5,44.8439,0,3,17.6172,18.8184,20,107.105,43,L,R,17.6172,44.8439,18.8184,0,0.282050748,3,5,green,untrained,400.992,101.673,yes,training
g2,14,652.257,2.17496,182.979,117.115,5,21.8214,201.197,10,188.985,0,18,43.4425,58,L,R,188.985,21.8214,0,201.197,0.896486065,10,5,green,trained,296.405,355.852,no,training
g3,14,845.791,2.8203,115.313,184.381,7,44.4435,101.499,17,77.676,0,2,0.400392,113,L,R,77.676,44.4435,0,101.499,0.636065493,17,7,green,trained,321.863,523.928,no,training
w1,15,694.511,2.31586,200.596,99.4974,4,30.0294,99.097,8,118.916,16.4161,34,42.0412,75,L,R,118.916,30.0294,16.4161,99.097,0.798386523,8,4,blue,trained,406.968,287.543,yes,training
w3,15,1149.14,3.83181,214.01,86.0843,8,21.8214,6.60647,12,110.308,33.8331,9,33.2325,138,L,R,110.308,21.8214,33.8331,6.60647,0.834848262,12,8,blue,untrained,818.064,331.076,no,training
e1,15,896.45,2.98923,255.25,44.8439,9,23.6231,143.941,16,182.579,3.40333,43,38.2374,89,L,R,182.579,23.6231,3.40333,143.941,0.885437151,16,9,blue,trained,597.171,299.279,yes,training
e2,15,297.751,0.992854,269.664,30.4298,3,31.0304,8.00784,1,236.031,64.0627,101,107.105,0,L,R,236.031,31.0304,64.0627,8.00784,0.883807993,1,3,blue,untrained,205.955,91.796,no,training
e3,15,607.884,2.027,215.411,84.2825,2,15.0147,112.71,11,206.202,9.00882,8,5.80568,62,L,R,206.202,15.0147,9.00882,112.71,0.932126734,11,2,blue,trained,332.533,275.351,yes,training
a1,15,980.72,3.27023,216.212,83.8821,8,27.8272,3.20314,10,179.976,17.6172,30,23.6231,108,L,R,179.976,27.8272,17.6172,3.20314,0.866088684,10,8,blue,untrained,587.601,393.119,yes,training
a2,15,990.409,3.30254,200.797,99.2972,7,35.2345,0.400392,9,103.501,25.4249,28,32.8321,129,L,R,103.501,35.2345,25.4249,0.400392,0.746031117,9,7,blue,untrained,556.43,433.979,yes,training
a3,15,883.267,2.94527,124.722,175.372,6,30.0294,154.752,12,52.8517,0,5,4.20412,112,L,R,52.8517,30.0294,0,154.752,0.637680967,12,6,blue,trained,419.138,464.129,no,training
b2,15,858.611,2.86305,206.002,93.2913,7,37.4367,32.4318,12,126.324,1.00098,12,11.211,103,L,R,126.324,37.4367,1.00098,32.4318,0.771393869,12,7,blue,trained,509.061,349.55,yes,training
b3,15,421.89,1.4068,50.049,249.044,0,0,-,13,108.706,0,27,26.6261,28,L,R,108.706,0,0,300,1,13,0,blue,trained,87.3049,334.5851,no,training
c1,15,576.897,1.92367,231.427,68.6672,6,187.784,5.80568,5,52.2512,18.418,47,111.309,55,R,L,187.784,52.2512,5.80568,18.418,0.782318593,6,5,green,trained,298.724,278.173,yes,training
c2,15,828.572,2.76289,254.249,45.8449,8,179.175,10.6104,5,14.8145,133.531,30,29.4288,84,R,L,179.175,14.8145,10.6104,133.531,0.923632465,8,5,green,trained,597.622,230.95,yes,training
c3,15,1660.7,5.53763,254.85,45.2443,24,102.701,6.60647,3,3.80372,42.8419,2,0.600588,203,R,L,102.701,3.80372,6.60647,42.8419,0.964285902,24,3,green,trained,1403.6,257.1,yes,training
x1,15,766.759,2.55677,250.846,49.2482,6,173.37,15.0147,3,13.6133,0,39,58.4572,68,R,L,173.37,13.6133,15.0147,0,0.927195102,6,3,green,untrained,528.868,237.891,yes,training
x2,15,260.902,0.869983,256.651,43.2423,4,266.261,26.0255,3,9.60941,0,91,121.719,0,R,L,266.261,9.60941,26.0255,0,0.965166942,4,3,green,untrained,160.266,100.636,yes,training
x3,15,525.994,1.75394,77.8762,222.218,9,67.6662,125.323,3,34.6339,31.4308,19,42.6417,60,R,L,67.6662,34.6339,125.323,31.4308,0.661448034,9,3,green,untrained,139.043,386.951,no,training
v1,15,531.66,1.77639,238.033,61.4602,7,224.019,33.2325,2,20.8204,0.600588,71,100.298,43,R,L,224.019,20.8204,33.2325,0.600588,0.914963033,7,2,green,untrained,283.345,248.315,yes,training
v2,15,620.604,2.06941,206.802,93.2913,4,172.769,85.6839,9,53.0519,0,38,44.8439,50,R,L,172.769,53.0519,85.6839,0,0.765070904,4,9,green,untrained,315.423,305.181,yes,training
v3,15,917.752,3.06026,182.579,117.115,8,71.0696,96.0941,10,100.699,0.200196,15,6.00588,110,R,L,71.0696,100.699,96.0941,0.200196,0.41375199,8,10,green,untrained,420.239,497.513,yes,training
g1,15,435.136,1.45097,265.06,35.0343,4,115.513,0,0,0,-,48,86.4847,21,R,L,115.513,0,0,300,1,4,0,green,trained,399.612,35.524,no,training
g2,15,766.612,2.55628,186.182,113.912,9,214.21,0,1,8.60843,222.818,24,14.2139,67,R,L,214.21,8.60843,0,222.818,0.961365718,9,1,green,trained,342.392,424.22,yes,training
g3,15,702.377,2.34209,101.099,198.995,3,13.0127,131.729,12,83.8821,0,2,0.800784,90,R,L,13.0127,83.8821,131.729,0,0.134297197,3,12,green,untrained,245.837,456.54,no,training
w1,16,784.685,2.61655,222.218,77.8762,8,151.548,38.0372,6,35.8351,4.8047,30,34.2335,85,R,L,151.548,35.8351,38.0372,4.8047,0.808760235,8,6,blue,untrained,457.367,327.318,yes,training
w2,16,751.973,2.96931,134.532,128.726,6,107.505,59.8586,21,67.6662,0,13,11.8116,102,R,L,107.505,67.6662,59.8586,0,0.613713898,6,21,blue,untrained,245.995,505.978,no,training
w3,16,870.816,2.91738,197.593,101.7,13,155.552,27.8272,7,32.8321,4.00392,21,30.2296,107,R,L,155.552,32.8321,27.8272,4.00392,0.825717245,13,7,blue,untrained,442.633,428.183,yes,training
e1,16,445.167,1.49239,271.065,29.0284,3,248.043,19.419,2,14.0137,10.8106,82,94.8929,18,R,L,248.043,14.0137,19.419,10.8106,0.946524168,3,2,blue,untrained,310.732,134.435,yes,training
e2,16,444.115,1.48388,178.375,121.719,5,136.934,106.304,6,55.2541,0,46,60.259,30,R,L,136.934,55.2541,106.304,0,0.712499889,5,6,blue,untrained,193.263,250.852,yes,training
e3,16,790.991,2.64464,123.721,176.373,7,30.2296,64.4631,15,105.503,0,8,9.20902,103,R,L,30.2296,105.503,64.4631,0,0.222714366,7,15,blue,untrained,326.232,464.759,yes,training
a1,16,885.523,2.95279,218.614,81.4798,9,190.987,28.0274,8,33.4327,0,25,13.8135,91,R,L,190.987,33.4327,28.0274,0,0.851026002,9,8,blue,untrained,520.125,365.398,yes,training
a2,16,298.88,1.02467,269.664,23.8233,4,262.657,1.80176,1,5.60549,294.488,80,90.6888,0,R,L,262.657,5.60549,1.80176,294.488,0.979104458,4,1,blue,trained,208.634,90.246,yes,training
a3,16,959.055,3.25226,159.957,139.737,7,25.4249,56.4553,11,53.2521,9.00882,9,8.00784,121,R,L,25.4249,53.2521,56.4553,9.00882,0.323155433,7,11,blue,untrained,583.346,375.709,no,training
b2,16,605.215,2.11259,168.765,122.52,7,88.0862,89.6878,11,99.2972,0,17,54.0529,76,R,L,88.0862,99.2972,89.6878,0,0.470085397,7,11,blue,untrained,374.301,230.914,yes,training
b3,16,563.146,1.87782,84.0823,215.811,1,2.00196,166.963,13,70.2688,2.00196,13,7.60745,66,R,L,2.00196,70.2688,166.963,2.00196,0.027700829,1,13,blue,untrained,163.583,399.563,no,training
c1,16,504.704,1.68294,237.232,62.8615,4,22.0216,100.498,7,179.776,0,37,90.2884,44,L,R,179.776,22.0216,0,100.498,0.890872835,7,4,green,trained,320.41,184.294,yes,training
c2,16,233.611,0.778981,288.883,11.0108,0,0,-,4,291.485,0,74,73.4719,0,L,R,291.485,0,0,300,1,4,0,green,trained,208.005,25.606,yes,training
c3,16,1459.84,4.86786,244.439,55.2541,14,31.8312,99.4974,13,116.114,1.80176,1,0.800784,169,L,R,116.114,31.8312,1.80176,99.4974,0.784844659,13,14,green,trained,1183.88,275.96,yes,training
x1,16,572.078,1.9076,265.86,34.2335,5,16.6163,184.18,6,198.795,0,44,34.8341,38,L,R,198.795,16.6163,0,184.18,0.92286245,6,5,green,trained,463.403,108.675,yes,training
x2,16,372.185,1.24106,274.469,25.4249,2,3.20314,139.136,6,251.246,0,76,76.0745,6,L,R,251.246,3.20314,0,139.136,0.987411472,6,2,green,trained,254.466,117.719,yes,training
x3,16,701.365,2.33871,69.0676,231.026,5,23.0225,203.8,12,70.0686,48.8478,8,5.80568,86,L,R,70.0686,23.0225,48.8478,203.8,0.752688495,12,5,green,trained,169.366,531.999,no,training
v1,16,484.566,1.61579,259.854,40.2394,2,9.40921,197.593,4,249.845,10.8106,60,66.8655,26,L,R,249.845,9.40921,10.8106,197.593,0.963706626,4,2,green,trained,288.84,195.726,yes,training
v2,16,362.992,1.2104,230.025,70.0686,1,3.40333,272.066,4,273.668,0.200196,62,69.2678,1,L,R,273.668,3.40333,0.200196,272.066,0.987716773,4,1,green,trained,232.271,130.721,yes,training
v3,16,283.395,0.944984,238.033,61.8606,0,0,-,5,278.072,0,59,35.6349,0,L,R,278.072,0,0,300,1,5,0,green,trained,179.418,103.977,yes,training
g1,16,528.096,1.76095,240.836,59.258,2,6.00588,132.33,6,164.561,0,52,67.0657,41,L,R,164.561,6.00588,0,132.33,0.964788709,6,2,green,trained,346.109,181.987,yes,training
g2,16,547.205,1.82466,200.797,99.2972,3,18.6182,205.801,7,233.829,0,51,26.2257,33,L,R,233.829,18.6182,0,205.801,0.926249132,7,3,green,trained,246.985,300.22,yes,training
g3,16,841.808,2.80702,134.131,165.762,9,36.0353,128.726,11,43.0421,6.20608,2,0.800784,114,L,R,43.0421,36.0353,6.20608,128.726,0.544303429,11,9,green,trained,386.338,455.47,no,training
w1,17,638.806,2.13011,231.627,68.2668,4,18.6182,108.506,9,145.142,30.0294,28,70.469,61,L,R,145.142,18.6182,30.0294,108.506,0.886308151,9,4,blue,trained,380.095,258.711,yes,training
w2,17,67.5088,0.365741,171.768,13.0127,0,0,-,1,184.781,115.313,13,16.0157,0,L,R,184.781,0,115.313,300,1,1,0,blue,trained,44.1387,23.3701,yes,training
w3,17,1225.84,4.08757,224.82,73.8723,5,14.8145,32.4318,12,101.9,0,13,9.20902,157,L,R,101.9,14.8145,0,32.4318,0.873070612,12,5,blue,trained,860.443,365.397,no,training
e1,17,329.575,1.09897,274.669,25.4249,2,4.20412,102.1,4,278.272,0,48,166.763,4,L,R,278.272,4.20412,0,102.1,0.985116901,4,2,blue,trained,183.261,146.314,yes,training
e2,17,399.642,1.33261,258.453,41.6408,3,20.42,179.776,3,256.451,3.60353,93,76.4749,15,L,R,256.451,20.42,3.60353,179.776,0.926247241,3,3,blue,trained,222.677,176.965,yes,training
e3,17,876.626,2.92312,154.151,145.342,7,25.2247,88.887,11,103.301,0,6,4.60451,110,L,R,103.301,25.2247,0,88.887,0.803738085,11,7,blue,trained,390.011,486.615,no,training
a1,17,1166.75,3.89055,200.596,99.4974,9,26.4259,27.0265,13,144.742,0.800784,8,3.00294,151,L,R,144.742,26.4259,0.800784,27.0265,0.84561416,13,9,blue,trained,692.574,474.176,yes,training
a2,17,866.64,2.88983,222.017,78.0764,11,36.4357,0,7,159.756,26.6261,35,22.8223,104,L,R,159.756,36.4357,26.6261,0,0.814285212,7,11,blue,untrained,472.799,393.841,yes,training
a3,17,958.842,3.19727,148.746,150.748,7,29.4288,3.00294,10,55.2541,39.2384,8,12.0118,131,L,R,55.2541,29.4288,39.2384,3.00294,0.652482378,10,7,blue,untrained,518.443,440.399,no,training
b2,17,15.7567,0.0525411,298.092,2.00196,0,0,-,1,297.691,2.40235,3,9.60941,0,L,R,297.691,0,2.40235,300,1,1,0,blue,trained,8.41392,7.34278,yes,training
b3,17,608.564,2.02927,157.554,142.54,1,3.20314,238.834,12,165.562,0,19,13.6133,74,L,R,165.562,3.20314,0,238.834,0.981020132,12,1,blue,trained,256.863,351.701,no,training
c1,17,344.154,1.14759,276.471,23.6231,3,264.059,3.40333,2,17.0167,230.426,47,198.795,8,R,L,264.059,17.0167,3.40333,230.426,0.939458658,3,2,green,trained,226.587,117.567,yes,training
c2,17,314.684,1.04932,290.284,9.8096,2,282.276,0,1,2.60255,259.254,62,41.841,0,R,L,282.276,2.60255,0,259.254,0.990864353,2,1,green,trained,264.717,49.967,yes,training
c3,17,1192.94,3.97789,250.045,50.049,5,156.553,0,8,13.6133,186.182,3,0.600588,117,R,L,156.553,13.6133,0,186.182,0.920000024,5,8,green,trained,986.398,206.542,yes,training
x1,17,669.666,2.23301,250.645,49.2482,6,185.381,35.8351,4,17.0167,5.80568,46,29.8292,54,R,L,185.381,17.0167,35.8351,5.80568,0.91592444,6,4,green,untrained,415.468,254.198,yes,training
x2,17,237.159,0.790809,258.453,41.6408,4,273.668,24.2237,1,17.0167,2.40235,86,158.555,0,R,L,273.668,17.0167,24.2237,2.40235,0.941459939,4,1,green,untrained,171.132,66.027,yes,training
x3,17,733.177,2.44479,108.106,191.788,8,85.0833,3.40333,6,36.8361,101.099,8,8.80862,85,R,L,85.0833,36.8361,3.40333,101.099,0.697865147,8,6,green,trained,240.527,492.65,no,training
v1,17,414.328,1.38158,227.823,72.2708,4,264.259,0,2,6.20608,228.223,76,122.92,18,R,L,264.259,6.20608,0,228.223,0.977054043,4,2,green,trained,217.107,197.221,yes,training
v2,17,496.411,1.65529,217.813,82.2806,3,219.815,62.8615,4,47.6466,0,66,51.8508,23,R,L,219.815,47.6466,62.8615,0,0.821856296,3,4,green,untrained,238.804,257.607,yes,training
v3,17,721.957,2.40738,142.139,157.554,3,50.4494,247.642,15,104.502,0,8,10.6104,87,R,L,50.4494,104.502,247.642,0,0.325582086,3,15,green,untrained,333.917,388.04,yes,training
g1,17,472.678,1.57615,192.188,107.906,3,201.197,64.2629,1,0.800784,31.631,39,61.4602,22,R,L,201.197,0.800784,64.2629,31.631,0.996035679,3,1,green,untrained,267.848,204.83,yes,training
g2,17,1180.98,3.93799,148.145,151.949,14,103.702,86.2845,13,44.8439,0,8,6.20608,154,R,L,103.702,44.8439,86.2845,0,0.698114186,14,13,green,untrained,519.764,661.216,yes,training
g3,17,927.221,3.09183,142.94,156.153,8,28.0274,81.2796,12,61.0598,7.80764,0,0,133,R,L,28.0274,61.0598,81.2796,7.80764,0.314606363,8,12,green,untrained,416.734,510.487,no,training
w1,18,551.627,1.83941,231.827,68.2668,7,102.701,1.60157,4,12.4122,43.0421,24,99.097,54,R,L,102.701,12.4122,1.60157,43.0421,0.892173964,7,4,blue,trained,256.337,295.29,yes,training
w2,18,19.4333,0.0648006,299.894,0.200196,1,300.094,0,0,0,-,8,7.60745,0,R,L,300.094,0,0,300,1,1,0,blue,trained,19.4333,0,no,training
w3,18,983.843,3.28064,186.382,113.111,10,93.2913,5.80568,8,40.4396,14.4141,15,13.8135,121,R,L,93.2913,40.4396,5.80568,14.4141,0.697604667,10,8,blue,trained,608.509,375.334,yes,training
e1,18,602.267,2.00827,236.832,63.2619,4,180.777,51.2502,5,36.4357,30.0294,66,84.6829,46,R,L,180.777,36.4357,51.2502,30.0294,0.832257967,4,5,blue,untrained,382.223,220.044,yes,training
e2,18,508.196,1.69459,212.808,87.2855,4,177.374,34.2335,4,30.0294,6.40627,54,45.2443,42,R,L,177.374,30.0294,34.2335,6.40627,0.855212595,4,4,blue,untrained,253.27,254.926,yes,training
e3,18,410.375,1.37207,186.182,112.911,0,0,-,14,195.992,0.800784,4,1.40137,41,R,L,0,195.992,300,0.800784,0,0,14,blue,untrained,125.801,284.574,yes,training
a1,18,866.401,2.88903,236.632,63.4621,9,190.386,38.6378,6,27.627,1.00098,37,25.2247,89,R,L,190.386,27.627,38.6378,1.00098,0.873278199,9,6,blue,untrained,591.548,274.853,yes,training
a2,18,620.021,2.06747,227.623,72.471,9,211.007,0,2,11.211,208.804,51,38.6378,55,R,L,211.007,11.211,0,208.804,0.949549541,9,2,blue,trained,303.409,316.612,yes,training
a3,18,1089.64,3.63342,192.589,107.105,6,14.8145,151.548,15,54.8537,1.20118,6,3.40333,145,R,L,14.8145,54.8537,151.548,1.20118,0.212643645,6,15,blue,untrained,761.246,328.394,no,training
b3,18,696.064,2.32104,94.0921,205.801,3,14.6143,64.6633,9,92.2904,0,10,6.00588,85,R,L,14.6143,92.2904,64.6633,0,0.136703999,3,9,blue,untrained,201.176,494.888,yes,training
c1,18,566.07,1.88757,246.441,53.6525,10,35.8351,0,4,217.213,62.261,59,87.2855,41,L,R,217.213,35.8351,62.261,0,0.858386212,4,10,green,untrained,325.696,240.374,yes,training
c2,18,241.563,0.805494,274.469,25.6251,0,0,-,1,300.094,0,64,81.4798,0,L,R,300.094,0,0,300,1,1,0,green,trained,201.151,40.412,yes,training
c3,18,1541.46,5.14002,241.436,58.6574,5,9.8096,67.4661,26,140.538,0,3,1.60157,186,L,R,140.538,9.8096,0,67.4661,0.934753864,26,5,green,trained,1199.58,341.88,yes,training
x1,18,797.41,2.65898,227.823,72.2708,4,12.0118,120.318,9,203.199,0,44,40.0392,70,L,R,203.199,12.0118,0,120.318,0.944185887,9,4,green,trained,494.241,303.169,yes,training
x2,18,527.737,1.75975,226.422,73.2717,1,6.20608,206.002,7,246.842,0,27,64.2629,23,L,R,246.842,6.20608,0,206.002,0.9754747,7,1,green,trained,375.784,151.953,yes,training
x3,18,622.778,2.09062,70.2688,227.222,3,19.2188,148.145,8,54.0529,2.00196,12,10.8106,72,L,R,54.0529,19.2188,2.00196,148.145,0.737705008,8,3,green,trained,170.711,452.067,no,training
v1,18,677.384,2.25875,216.412,83.6819,4,11.0108,5.0049,7,221.817,13.4131,63,79.0774,62,L,R,221.817,11.0108,13.4131,5.0049,0.952708397,7,4,green,untrained,282.039,395.345,yes,training
v2,18,411.933,1.3736,264.859,35.2345,0,0,-,3,266.461,0,56,44.2433,1,L,R,266.461,0,0,300,1,3,0,green,trained,328.337,83.596,yes,training
v3,18,315.666,1.05259,269.864,30.2296,1,2.80274,248.443,2,279.874,4.20412,43,26.8263,0,L,R,279.874,2.80274,4.20412,248.443,0.990085,2,1,green,trained,203.699,111.967,no,training
g1,18,779.173,2.59816,177.574,122.52,5,11.0108,133.331,8,198.194,0,41,31.8312,70,L,R,198.194,11.0108,0,133.331,0.94736832,8,5,green,trained,286.863,492.31,yes,training
g2,18,1047.06,3.49144,171.768,128.326,7,23.0225,151.949,10,151.548,0,12,4.8047,130,L,R,151.548,23.0225,0,151.949,0.868119184,10,7,green,trained,411.24,635.82,yes,training
g3,18,747.842,2.49369,125.523,173.77,6,31.4308,140.938,15,77.4759,8.20804,2,0.600588,102,L,R,77.4759,31.4308,8.20804,140.938,0.711397003,15,6,green,trained,280.114,467.728,no,training
w1,19,589.72,1.96643,213.809,86.2845,4,17.2169,136.133,7,186.783,0,49,48.2472,44,L,R,186.783,17.2169,0,136.133,0.91560339,7,4,blue,trained,330.185,259.535,yes,training
w2,19,282.389,0.941632,263.458,36.4357,0,0,-,5,269.864,15.0147,20,13.4131,1,L,R,269.864,0,15.0147,300,1,5,0,blue,trained,191.897,90.492,no,training
w3,19,814.632,2.7164,212.408,87.6858,7,16.2159,78.4768,10,211.407,1.40137,26,32.0314,85,L,R,211.407,16.2159,1.40137,78.4768,0.928759804,10,7,blue,trained,435.795,378.837,yes,training
e1,19,253.961,0.846837,293.888,6.20608,1,34.6339,0,1,254.249,45.8449,82,171.168,0,L,R,254.249,34.6339,45.8449,0,0.880110938,1,1,blue,untrained,231.9,22.061,yes,training
e2,19,192.853,0.64307,300.094,0,0,0,-,1,300.094,0,102,106.704,0,L,R,300.094,0,0,300,1,1,0,blue,trained,192.853,0,yes,training
e3,19,826.219,2.75504,152.349,147.544,5,27.4269,124.522,15,103.902,0,11,16.8165,100,L,R,103.902,27.4269,0,124.522,0.791158686,15,5,blue,trained,399.627,426.592,no,training
a1,19,662.798,2.21011,258.253,41.841,4,13.6133,181.778,6,235.03,0,73,80.679,54,L,R,235.03,13.6133,0,181.778,0.945249681,6,4,blue,trained,437.118,225.68,yes,training
a2,19,634.333,2.11519,160.958,139.136,6,46.0451,0,4,119.317,123.121,40,39.2384,60,L,R,119.317,46.0451,123.121,0,0.721549859,4,6,blue,untrained,229.724,404.609,yes,training
a3,19,712.002,2.37418,90.0882,209.605,1,2.80274,127.925,15,80.4788,4.20412,7,3.80372,89,L,R,80.4788,2.80274,4.20412,127.925,0.966346203,15,1,blue,trained,205.753,506.249,no,training
b3,19,373.045,1.24393,252.047,47.8468,2,7.40725,287.481,5,242.037,0,49,36.6359,7,L,R,242.037,7.40725,0,287.481,0.970304988,5,2,blue,trained,229.69,143.355,yes,training
c1,19,428.401,1.42851,241.637,58.4572,7,247.242,0.200196,1,4.60451,284.879,49,95.2933,19,R,L,247.242,4.60451,0.200196,284.879,0.981716999,7,1,green,trained,239.351,189.05,yes,training
c2,19,491.752,1.70698,215.211,73.6721,2,203.399,78.677,7,27.627,4.60451,61,60.8596,32,R,L,203.399,27.627,78.677,4.60451,0.880416057,2,7,green,untrained,244.35,247.402,yes,training
c3,19,871.729,2.90679,249.845,50.2492,6,212.608,11.8116,7,16.8165,2.20216,10,7.80764,75,R,L,212.608,16.8165,11.8116,2.20216,0.926701377,6,7,green,untrained,644.568,227.161,yes,training
x1,19,671.745,2.23994,245.841,54.0529,8,218.814,16.2159,3,18.2178,215.211,46,37.4367,53,R,L,218.814,18.2178,16.2159,215.211,0.923141958,8,3,green,trained,398.401,273.344,yes,training
x2,19,403.892,1.34679,268.263,31.8312,3,258.853,38.838,2,18.418,0,56,42.2414,0,R,L,258.853,18.418,38.838,0,0.933574012,3,2,green,untrained,316.309,87.583,yes,training
x3,19,617.809,2.06009,42.6417,257.452,6,20.42,158.555,10,58.0568,1.40137,17,18.418,61,R,L,20.42,58.0568,158.555,1.40137,0.26020429,6,10,green,untrained,98.205,519.604,no,training
v1,19,267.149,0.890811,282.877,17.2169,3,283.478,0,1,4.00392,269.264,63,179.576,0,R,L,283.478,4.00392,0,269.264,0.986072446,3,1,green,trained,187.616,79.533,yes,training
v2,19,443.706,1.47955,249.244,50.8498,1,210.006,90.0882,4,49.6486,0.600588,66,65.4641,18,R,L,210.006,49.6486,90.0882,0.600588,0.808789831,1,4,green,untrained,277.409,166.297,yes,training
v3,19,489.811,1.63328,217.012,82.8811,2,164.761,134.131,9,73.6721,2.60255,30,18.6182,30,R,L,164.761,73.6721,134.131,2.60255,0.691015635,2,9,green,untrained,279.76,210.051,yes,training
g1,19,622.564,2.07595,239.434,60.6594,11,250.245,4.8047,0,0,-,34,53.0519,46,R,L,250.245,0,4.8047,300,1,11,0,green,trained,382.199,240.365,yes,training
g2,19,830.739,2.77011,203.199,96.8949,14,229.024,0,3,8.60843,96.6947,27,23.2227,78,R,L,229.024,8.60843,0,96.6947,0.963774178,14,3,green,trained,452.909,377.83,yes,training
g3,19,766.259,2.60377,140.738,153.55,3,11.4112,77.0755,15,110.909,5.60549,5,4.8047,102,R,L,11.4112,110.909,77.0755,5.60549,0.093289579,3,15,green,untrained,320.739,445.52,no,training
w1,20,482.858,1.6101,231.627,68.467,4,187.183,62.261,3,54.2531,6.60647,59,78.2766,27,R,L,187.183,54.2531,62.261,6.60647,0.775290025,4,3,blue,untrained,256.013,226.845,yes,training
w2,20,496.411,1.86438,196.993,69.8684,5,154.351,91.6898,5,37.837,9.00882,23,21.0206,31,R,L,154.351,37.837,91.6898,9.00882,0.803125065,5,5,blue,untrained,290.674,205.737,yes,training
w3,20,894.937,2.98418,186.182,113.711,10,126.123,41.6408,7,42.8419,8.60843,20,17.2169,113,R,L,126.123,42.8419,41.6408,8.60843,0.746444972,10,7,blue,untrained,460.266,434.671,yes,training
e1,20,354.917,1.18348,268.463,31.631,2,213.809,59.258,4,27.4269,31.8312,65,118.916,4,R,L,213.809,27.4269,59.258,31.8312,0.886306723,2,4,blue,untrained,248.044,106.873,yes,training
e2,20,352.726,1.17617,205.601,94.4925,2,149.747,110.708,5,45.8449,25.8253,42,117.915,17,R,L,149.747,45.8449,110.708,25.8253,0.765609414,2,5,blue,untrained,167.258,185.468,yes,training
e3,20,770.438,2.56904,139.537,160.557,3,7.80764,174.771,16,95.2933,3.40333,1,0.200196,96,R,L,7.80764,95.2933,174.771,3.40333,0.075728117,3,16,blue,untrained,353.973,416.465,yes,training
a1,20,557.532,1.8591,251.046,49.048,5,266.06,0,2,8.40823,166.763,63,66.4651,28,R,L,266.06,8.40823,0,166.763,0.96936538,5,2,blue,trained,324.311,233.221,yes,training
a2,20,349.307,1.16477,240.035,60.0588,4,243.438,0,2,17.8174,234.43,80,85.0833,12,R,L,243.438,17.8174,0,234.43,0.931800836,4,2,blue,trained,185.94,163.367,yes,training
a3,20,563.113,1.87771,84.6829,215.211,5,29.0284,35.0343,9,65.2639,17.6172,22,34.4337,60,R,L,29.0284,65.2639,35.0343,17.6172,0.307855466,5,9,blue,untrained,151.208,411.905,no,training
b3,20,639.92,2.13382,200.396,99.6976,7,167.564,8.80862,6,37.837,100.699,11,12.0118,72,R,L,167.564,37.837,8.80862,100.699,0.815789602,7,6,blue,trained,322.938,316.982,yes,training
c1,20,351.836,1.1732,269.864,30.0294,1,5.40529,285.68,6,255.65,2.80274,80,127.725,7,L,R,255.65,5.40529,2.80274,285.68,0.979294463,6,1,green,trained,253.1,98.736,yes,training
c2,20,316.667,1.05593,263.658,36.4357,1,59.6584,0.800784,3,200.997,80.8792,45,42.6417,0,L,R,200.997,59.6584,80.8792,0.800784,0.771121565,3,1,green,untrained,223.873,92.794,yes,training
c3,20,1038.71,3.4636,259.454,39.839,3,8.00784,90.6888,12,166.363,0,6,7.20706,106,L,R,166.363,8.00784,0,90.6888,0.954075808,12,3,green,trained,845.46,193.25,yes,training
x1,20,441.357,1.47171,247.442,52.6515,2,13.6133,11.0108,6,240.636,31.631,52,82.0804,18,L,R,240.636,13.6133,31.631,11.0108,0.946456883,6,2,green,untrained,328.812,112.545,yes,training
x2,20,417.753,1.393,261.456,38.6378,2,16.4161,73.2717,4,254.649,0,73,69.0676,12,L,R,254.649,16.4161,0,73.2717,0.939438533,4,2,green,trained,281.841,135.912,yes,training
x3,20,571.637,1.90613,57.0559,242.838,10,33.4327,18.0176,8,42.4416,111.509,15,25.0245,54,L,R,42.4416,33.4327,111.509,18.0176,0.559367269,8,10,green,untrained,98.1816,473.4554,no,training
v1,20,347.03,1.15718,240.836,59.258,2,8.00784,207.603,5,276.671,0,66,147.144,11,L,R,276.671,8.00784,0,207.603,0.971870617,5,2,green,trained,169.128,177.902,yes,training
v2,20,171.801,0.572872,293.087,7.00686,0,0,-,1,300.094,0,101,164.561,0,L,R,300.094,0,0,300,1,1,0,green,trained,163.131,8.67,yes,training
v3,20,209.836,0.699702,281.876,17.6172,0,0,-,4,280.675,18.8184,71,68.0666,0,L,R,280.675,0,18.8184,300,1,4,0,green,trained,173.398,36.438,yes,training
g1,20,500.834,1.67004,160.557,139.537,3,55.8547,6.80666,2,144.942,148.145,28,72.0706,27,L,R,144.942,55.8547,148.145,6.80666,0.721834572,2,3,green,untrained,264.296,236.538,yes,training
g2,20,1028.06,3.42808,160.157,139.937,8,49.4484,0.600588,11,158.155,33.8331,17,19.419,132,L,R,158.155,49.4484,33.8331,0.600588,0.761813149,11,8,green,untrained,369.751,658.309,yes,training
g3,20,820.206,2.73499,134.532,165.162,2,12.212,177.374,11,48.8478,5.60549,2,0.600588,115,L,R,48.8478,12.212,5.60549,177.374,0.799999345,11,2,green,trained,355.373,464.833,no,training
w1,0,853.939,2.86276,234.43,64.4631,7,26.4259,57.8566,7,27.8272,41.6408,14,87.6858,94,R,L,26.4259,27.8272,57.8566,41.6408,0.487085531,7,7,blue,untrained,741.916,112.023,NA,test
w2,0,1267.29,4.52808,287.281,9.40921,10,24.4239,37.837,12,29.4288,17.4171,5,11.0108,162,L,R,29.4288,24.4239,17.4171,37.837,0.546468422,12,10,blue,trained,1210.44,56.85,NA,test
w3,0,1609.21,6.1832,291.485,6.00588,13,21.8214,26.0255,6,9.40921,11.8116,3,0.800784,238,R,L,21.8214,9.40921,26.0255,11.8116,0.698718341,13,6,blue,untrained,1561.98,47.23,NA,test
e1,0,888.271,2.97387,278.272,20.6202,6,17.0167,69.6682,10,35.2345,17.2169,10,49.8488,103,L,R,35.2345,17.0167,17.2169,69.6682,0.674329011,10,6,blue,trained,813.881,74.39,NA,test
e2,0,1119.78,3.74893,280.875,18.0176,6,17.4171,21.8214,11,25.2247,9.00882,3,2.60255,130,R,L,17.4171,25.2247,21.8214,9.00882,0.408451332,6,11,blue,untrained,1075.2,44.58,NA,test
e3,0,1279.38,4.51636,272.066,20.6202,13,36.4357,28.2276,12,26.0255,40.6398,4,11.4112,168,L,R,26.0255,36.4357,40.6398,28.2276,0.416666667,12,13,blue,untrained,1118.42,160.96,NA,test
a1,0,1435.36,4.80549,276.871,22.0216,9,22.6221,18.2178,11,27.0265,5.40529,1,0.400392,183,R,L,22.6221,27.0265,18.2178,5.40529,0.455644268,9,11,blue,untrained,1333.25,102.11,NA,test
a2,0,1121.74,3.76558,276.27,22.2218,11,33.2325,0,9,30.4298,24.6241,5,4.8047,131,L,R,30.4298,33.2325,24.6241,0,0.477987757,9,11,blue,untrained,1001.52,120.22,NA,test
a3,0,1552.06,5.72579,294.689,1.80176,19,35.2345,4.20412,12,20.8204,16.2159,0,0,201,R,L,35.2345,20.8204,4.20412,16.2159,0.628571276,19,12,blue,trained,1535,17.06,NA,test
b3,0,1452.86,4.96387,274.269,23.6231,11,27.627,29.4288,10,22.8223,14.6143,2,1.80176,186,L,R,22.8223,27.627,14.6143,29.4288,0.452380905,10,11,blue,trained,1362.91,89.95,NA,test
c1,0,1227.2,4.10858,289.483,9.40921,10,29.0284,35.8351,9,24.8243,0,5,4.40431,150,R,L,29.0284,24.8243,35.8351,0,0.539033326,10,9,green,untrained,1182.33,44.87,NA,test
c2,0,1545.83,5.23497,244.239,54.6535,11,27.627,3.00294,17,38.838,58.4572,6,3.20314,213,L,R,38.838,27.627,58.4572,3.00294,0.584337621,17,11,green,untrained,1230.11,315.72,NA,test
c3,0,1932.15,7.00383,279.273,19.2188,12,23.6231,17.4171,15,23.4229,31.2306,1,0.400392,261,R,L,23.6231,23.4229,17.4171,31.2306,0.502127705,12,15,green,trained,1768.23,163.92,NA,test
x1,0,990.765,3.32146,251.446,47.4465,5,15.2149,76.4749,12,48.6476,15.2149,11,10.4102,114,L,R,48.6476,15.2149,15.2149,76.4749,0.761755334,12,5,green,trained,780.644,210.121,NA,test
x2,0,1017.8,3.40751,257.252,41.6408,9,27.4269,0.400392,7,23.4229,73.8723,9,15.0147,117,R,L,27.4269,23.4229,0.400392,73.8723,0.539370853,9,7,green,trained,853.928,163.872,NA,test
x3,0,1283.12,4.32186,293.487,4.8047,10,23.8233,70.6692,4,13.8135,25.6251,2,13.6133,143,L,R,13.8135,23.8233,25.6251,70.6692,0.367021107,4,10,green,trained,1242.38,40.74,NA,test
v1,0,871.82,2.91879,294.689,4.20412,6,23.8233,63.6623,6,21.8214,24.6241,23,29.8292,92,R,L,23.8233,21.8214,63.6623,24.6241,0.521929162,6,6,green,untrained,853.553,18.267,NA,test
v2,0,962.573,3.23346,253.648,45.2443,5,44.0431,43.0421,9,30.0294,15.8155,12,35.0343,109,L,R,30.0294,44.0431,15.8155,43.0421,0.405405515,9,5,green,trained,841.894,120.679,NA,test
v3,0,1194.2,4.45493,253.048,25.8253,12,31.0304,8.80862,10,26.6261,84.4827,6,21.6212,148,R,L,31.0304,26.6261,8.80862,84.4827,0.538194306,12,10,green,trained,1116.52,77.68,NA,test
g1,0,531.621,1.78222,260.055,38.838,6,12.0118,10.4102,7,20.42,36.6359,17,141.739,56,L,R,20.42,12.0118,36.6359,10.4102,0.629628944,7,6,green,untrained,404.881,126.74,NA,test
g2,0,1298.2,4.34627,258.653,40.2394,13,46.0451,38.4376,8,18.8184,64.0627,6,28.8282,165,R,L,46.0451,18.8184,38.4376,64.0627,0.709876895,13,8,green,trained,1077.15,221.05,NA,test
g3,0,1081.62,3.72094,291.686,6.00588,12,32.8321,15.6153,3,3.60353,171.968,4,2.20216,113,L,R,3.60353,32.8321,171.968,15.6153,0.098901268,3,12,green,untrained,1053.69,27.93,NA,test
w1,21,841.93,2.80743,210.206,89.888,10,89.4876,26.6261,8,46.8459,5.0049,12,27.8272,98,R,L,89.4876,46.8459,26.6261,5.0049,0.656387462,10,8,blue,untrained,506.086,335.844,NA,test
w2,21,909.899,3.03407,208.604,91.2894,12,88.4866,27.8272,11,49.4484,12.0118,14,8.40823,116,L,R,49.4484,88.4866,12.0118,27.8272,0.358490593,11,12,blue,trained,552.496,357.403,NA,test
w3,21,684.505,2.28249,169.366,130.728,8,99.2972,27.4269,8,49.048,0,12,80.4788,77,R,L,99.2972,49.048,27.4269,0,0.669365777,8,8,blue,untrained,480.307,204.198,NA,test
e1,21,1073.27,3.57884,219.415,80.679,8,67.4661,40.4396,12,71.0696,0,12,7.60745,132,L,R,71.0696,67.4661,0,40.4396,0.513005673,12,8,blue,trained,721.284,351.986,NA,test
e2,21,747.249,2.49171,162.359,137.735,10,103.702,36.2355,6,45.2443,0,11,7.00686,91,R,L,103.702,45.2443,36.2355,0,0.696237503,10,6,blue,untrained,390.156,357.093,NA,test
e3,21,820.184,2.73492,207.203,92.4906,7,51.6506,43.0421,13,64.6633,10.21,5,4.00392,104,L,R,64.6633,51.6506,10.21,43.0421,0.555937854,13,7,blue,trained,531.841,288.343,NA,test
a1,21,943.3,3.14545,215.611,84.4827,12,95.4935,0.600588,8,68.0666,53.8527,5,6.40627,103,R,L,95.4935,68.0666,0.600588,53.8527,0.583843492,12,8,blue,trained,658.898,284.402,NA,test
a2,21,881.874,2.94062,150.347,149.747,7,55.4543,83.2815,12,86.6849,15.0147,7,11.0108,106,L,R,86.6849,55.4543,15.0147,83.2815,0.609859208,12,7,blue,trained,394.583,487.291,NA,test
a3,21,748.76,2.49675,104.903,194.591,17,53.0519,0,8,78.4768,48.4474,9,20.42,99,R,L,53.0519,78.4768,0,48.4474,0.403348471,17,8,blue,trained,292.368,456.392,NA,test
b3,21,779.74,2.60005,167.764,131.929,5,40.6398,40.4396,12,73.8723,0,4,2.80274,99,L,R,73.8723,40.6398,0,40.4396,0.645104753,12,5,blue,trained,382.673,397.067,NA,test
c1,21,815.834,2.72041,229.825,70.2688,9,95.0931,3.00294,8,66.6653,37.2365,13,6.80666,95,R,L,95.0931,66.6653,3.00294,37.2365,0.587871171,9,8,green,trained,531.653,284.181,NA,test
c2,21,740.625,2.46962,133.13,166.963,6,26.0255,24.6241,10,178.575,0,10,95.6937,82,L,R,178.575,26.0255,0,24.6241,0.872798454,10,6,green,trained,362.023,378.602,NA,test
c3,21,1169.16,3.89858,213.809,85.6839,8,63.4621,52.8517,13,52.051,12.212,1,1.00098,146,R,L,63.4621,52.051,52.8517,12.212,0.549393099,8,13,green,untrained,843.579,325.581,NA,test
x1,21,528.694,1.76294,157.955,142.139,6,27.4269,39.2384,7,199.595,8.60843,17,144.341,47,L,R,199.595,27.4269,8.60843,39.2384,0.879188307,7,6,green,trained,303.249,225.445,NA,test
x2,21,635.688,2.11971,191.588,108.506,12,155.552,0,5,36.2355,111.709,14,69.6682,54,R,L,155.552,36.2355,0,111.709,0.811064329,12,5,green,trained,501.171,134.517,NA,test
x3,21,621.295,2.07172,151.548,148.545,3,7.40725,145.542,10,62.6613,32.2316,30,44.0431,81,L,R,62.6613,7.40725,32.2316,145.542,0.894285667,10,3,green,trained,260.952,360.343,NA,test
v1,21,522.644,1.74277,140.337,159.756,6,114.112,1.80176,5,62.4612,40.2394,21,115.513,47,R,L,114.112,62.4612,1.80176,40.2394,0.646258889,6,5,green,trained,260.725,261.919,NA,test
v2,21,725.356,2.41871,201.998,98.096,4,26.4259,146.944,14,177.374,0,7,5.60549,79,L,R,177.374,26.4259,0,146.944,0.870334088,14,4,green,trained,449.405,275.951,NA,test
v3,21,760.351,2.5354,170.767,129.327,10,75.0735,68.0666,10,101.099,0,2,0.400392,87,R,L,75.0735,101.099,68.0666,0,0.426136315,10,10,green,untrained,418.546,341.805,NA,test
g1,21,315.683,1.05265,222.218,77.8762,2,3.80372,136.133,5,154.351,0,16,175.372,15,L,R,154.351,3.80372,0,136.133,0.975949374,5,2,green,trained,171.445,144.238,NA,test
g2,21,1097.84,3.66076,184.781,115.313,15,126.724,0,7,44.4435,42.0412,11,34.4337,147,R,L,126.724,44.4435,0,42.0412,0.740350826,15,7,green,trained,537.031,560.809,NA,test
g3,21,806.524,2.76126,161.959,130.728,4,23.2227,45.4445,20,113.111,0,1,0.400392,105,L,R,113.111,23.2227,0,45.4445,0.829662805,20,4,green,trained,457.595,348.929,NA,test
